condition12.thisRepN,condition12.thisTrialN,condition12.thisN,condition12.thisIndex,condition11.thisRepN,condition11.thisTrialN,condition11.thisN,condition11.thisIndex,condition10.thisRepN,condition10.thisTrialN,condition10.thisN,condition10.thisIndex,condition9.thisRepN,condition9.thisTrialN,condition9.thisN,condition9.thisIndex,condition8.thisRepN,condition8.thisTrialN,condition8.thisN,condition8.thisIndex,condition7.thisRepN,condition7.thisTrialN,condition7.thisN,condition7.thisIndex,condition6.thisRepN,condition6.thisTrialN,condition6.thisN,condition6.thisIndex,condition5.thisRepN,condition5.thisTrialN,condition5.thisN,condition5.thisIndex,condition4.thisRepN,condition4.thisTrialN,condition4.thisN,condition4.thisIndex,condition3.thisRepN,condition3.thisTrialN,condition3.thisN,condition3.thisIndex,condition2.thisRepN,condition2.thisTrialN,condition2.thisN,condition2.thisIndex,condition1.thisRepN,condition1.thisTrialN,condition1.thisN,condition1.thisIndex,thisRow.t,notes,InsFrame.started,key_resp.started,InsFrame.stopped,key_resp.keys,key_resp.rt,key_resp.duration,prepare.started,condition,key_resp_6.started,ins_1back.started,pic_01png_2.started,prepare.stopped,key_resp_6.keys,key_resp_6.rt,key_resp_6.duration,Stim.started,ans,image_bac.started,Stim.stopped,key_resp_2.keys,key_resp_2.corr,key_resp_2.rt,key_resp_2.duration,feedback.started,image_bac_2.started,msg_response.started,fixation_img.started,feedback.stopped,image_bac_2.stopped,msg_response.stopped,fixation_img.stopped,ins_2back.started,pic_02png_2.started,thanks.started,text_3.started,key_resp_3.started,thanks.stopped,key_resp_3.keys,key_resp_3.rt,key_resp_3.duration,participant,年级,班级,性别,date,expName,psychopyVersion,frameRate,expStart,
,,,,,,,,,,,,,,,,,,,,,,,,,,,,,,,,,,,,,,,,,,,,,,,,,,0.010717974000726826,0.030358029000126407,0.8624027460000434,space,0.7994419759997982,None,,,,,,,,,,,,,,,,,,,,,,,,,,,,,,,,,,,7,7,7,7,2024-06-04_21h47.25.212,N-BACK_primary,2024.1.4,None,2024-06-04 21h47.40.977487 +0800,
,,,,,,,,,,,,,,,,,,,,,,,,,,,,,,,,,,,,,,,,,,,,,,,,,,,,,,,,0.8624609680000503,"{'i=': 12, 'n=': 1, 'len=': 9, 'fix=': 1}",0.8795259120006449,0.8795259120006449,0.8795259120006449,2.680509368999992,space,1.789765592000549,None,,,,,,,,,,,,,,,,,,,,,,,,,,7,7,7,7,2024-06-04_21h47.25.212,N-BACK_primary,2024.1.4,None,2024-06-04 21h47.40.977487 +0800,
0,0,0,0,,,,,,,,,,,,,,,,,,,,,,,,,,,,,,,,,,,,,,,,,,,,,2.7248834050005826,,,,,,,,,,,,,,,,,2.6818960450000304,j,2.7248834050005826,3.6630569580001975,j,1,0.9532148870002857,None,3.6639356900004714,3.6892234250008187,3.6892234250008187,3.6892234250008187,4.179651566000757,,,,,,,,,,,,,7,7,7,7,2024-06-04_21h47.25.212,N-BACK_primary,2024.1.4,None,2024-06-04 21h47.40.977487 +0800,
1,0,1,0,,,,,,,,,,,,,,,,,,,,,,,,,,,,,,,,,,,,,,,,,,,,,4.199346164000417,,,,,,,,,,,,,,,,,4.18007846600085,f,4.199346164000417,4.980291976999979,f,1,0.7765423500004545,None,4.980924008000329,4.995003022000674,4.995003022000674,4.995003022000674,5.479495280000265,5.499816955000824,5.499816955000824,5.499816955000824,,,,,,,,,,7,7,7,7,2024-06-04_21h47.25.212,N-BACK_primary,2024.1.4,None,2024-06-04 21h47.40.977487 +0800,
2,0,2,0,,,,,,,,,,,,,,,,,,,,,,,,,,,,,,,,,,,,,,,,,,,,,5.499816955000824,,,,,,,,,,,,,,,,,5.479900183000609,j,5.499816955000824,6.029943129999992,j,1,0.5312887560003219,None,6.030575580000004,6.0460306840004705,6.0460306840004705,6.0460306840004705,6.530352441000105,6.550882100000308,6.550882100000308,6.550882100000308,,,,,,,,,,7,7,7,7,2024-06-04_21h47.25.212,N-BACK_primary,2024.1.4,None,2024-06-04 21h47.40.977487 +0800,
3,0,3,0,,,,,,,,,,,,,,,,,,,,,,,,,,,,,,,,,,,,,,,,,,,,,6.550882100000308,,,,,,,,,,,,,,,,,6.530787204000262,j,6.550882100000308,7.196490683000775,j,1,0.6510413460000564,None,7.197139707000133,7.212854219000292,7.212854219000292,7.212854219000292,7.696037658000023,7.715148512000269,7.715148512000269,7.715148512000269,,,,,,,,,,7,7,7,7,2024-06-04_21h47.25.212,N-BACK_primary,2024.1.4,None,2024-06-04 21h47.40.977487 +0800,
4,0,4,0,,,,,,,,,,,,,,,,,,,,,,,,,,,,,,,,,,,,,,,,,,,,,7.715148512000269,,,,,,,,,,,,,,,,,7.696447522000199,j,7.715148512000269,8.397350958000061,j,1,0.6923013590003393,None,8.39800349699999,8.413079805000052,8.413079805000052,8.413079805000052,8.896037292000074,8.915197035000347,8.915197035000347,8.915197035000347,,,,,,,,,,7,7,7,7,2024-06-04_21h47.25.212,N-BACK_primary,2024.1.4,None,2024-06-04 21h47.40.977487 +0800,
5,0,5,0,,,,,,,,,,,,,,,,,,,,,,,,,,,,,,,,,,,,,,,,,,,,,8.915197035000347,,,,,,,,,,,,,,,,,8.89644754300025,j,8.915197035000347,9.531812229000025,j,1,0.6224334729995462,None,9.532516901000236,9.548434806000841,9.548434806000841,9.548434806000841,10.045518676000029,,,,,,,,,,,,,7,7,7,7,2024-06-04_21h47.25.212,N-BACK_primary,2024.1.4,None,2024-06-04 21h47.40.977487 +0800,
6,0,6,0,,,,,,,,,,,,,,,,,,,,,,,,,,,,,,,,,,,,,,,,,,,,,10.064491191000343,,,,,,,,,,,,,,,,,10.04593225500048,j,10.064491191000343,10.781599607000317,j,1,0.7161787240002013,None,10.782240226000795,10.796358502000658,10.796358502000658,10.796358502000658,11.279456592000315,11.2997043940004,11.2997043940004,11.2997043940004,,,,,,,,,,7,7,7,7,2024-06-04_21h47.25.212,N-BACK_primary,2024.1.4,None,2024-06-04 21h47.40.977487 +0800,
7,0,7,0,,,,,,,,,,,,,,,,,,,,,,,,,,,,,,,,,,,,,,,,,,,,,11.2997043940004,,,,,,,,,,,,,,,,,11.27986181200049,j,11.2997043940004,11.94641945100011,j,1,0.6511287550001725,None,11.947049385000355,11.962895331000254,11.962895331000254,11.962895331000254,12.462357587000042,,,,,,,,,,,,,7,7,7,7,2024-06-04_21h47.25.212,N-BACK_primary,2024.1.4,None,2024-06-04 21h47.40.977487 +0800,
8,0,8,0,,,,,,,,,,,,,,,,,,,,,,,,,,,,,,,,,,,,,,,,,,,,,12.481292165000013,,,,,,,,,,,,,,,,,12.462773916000515,f,12.481292165000013,13.08116985200013,f,1,0.5965643770005045,None,13.082229261000066,13.098326958000143,13.098326958000143,13.098326958000143,13.595448844000202,,,,,,,,,,,,,7,7,7,7,2024-06-04_21h47.25.212,N-BACK_primary,2024.1.4,None,2024-06-04 21h47.40.977487 +0800,
9,0,9,0,,,,,,,,,,,,,,,,,,,,,,,,,,,,,,,,,,,,,,,,,,,,,13.616137031000108,,,,,,,,,,,,,,,,,13.595936076000726,j,13.616137031000108,14.264035830000466,j,1,0.6544553120002092,None,14.264654966000307,14.27884285500022,14.27884285500022,14.27884285500022,14.76249452400043,14.781381957000121,14.781381957000121,14.781381957000121,,,,,,,,,,7,7,7,7,2024-06-04_21h47.25.212,N-BACK_primary,2024.1.4,None,2024-06-04 21h47.40.977487 +0800,
10,0,10,0,,,,,,,,,,,,,,,,,,,,,,,,,,,,,,,,,,,,,,,,,,,,,14.781381957000121,,,,,,,,,,,,,,,,,14.762900367000839,j,14.781381957000121,15.265290629999981,j,1,0.4844924130002255,None,15.265902484000435,15.279656758000783,15.279656758000783,15.279656758000783,15.764313978000246,15.78489940899999,15.78489940899999,15.78489940899999,,,,,,,,,,7,7,7,7,2024-06-04_21h47.25.212,N-BACK_primary,2024.1.4,None,2024-06-04 21h47.40.977487 +0800,
11,0,11,0,,,,,,,,,,,,,,,,,,,,,,,,,,,,,,,,,,,,,,,,,,,,,15.78489940899999,,,,,,,,,,,,,,,,,15.764798822000557,j,15.78489940899999,16.198797322000246,j,1,0.42354577999958565,None,16.19941730500068,16.21336526400046,16.21336526400046,16.21336526400046,16.71213525300027,,,,,,,,,,,,,7,7,7,7,2024-06-04_21h47.25.212,N-BACK_primary,2024.1.4,None,2024-06-04 21h47.40.977487 +0800,
12,0,12,0,,,,,,,,,,,,,,,,,,,,,,,,,,,,,,,,,,,,,,,,,,,,,16.730084495000483,,,,,,,,,,,,,,,,,16.712541588000022,j,16.730084495000483,17.26374211500024,j,1,0.5304122400002598,None,17.264360299000145,17.279281071000696,17.279281071000696,17.279281071000696,17.763405156000772,17.782813959000123,17.782813959000123,17.782813959000123,,,,,,,,,,7,7,7,7,2024-06-04_21h47.25.212,N-BACK_primary,2024.1.4,None,2024-06-04 21h47.40.977487 +0800,
13,0,13,0,,,,,,,,,,,,,,,,,,,,,,,,,,,,,,,,,,,,,,,,,,,,,17.782813959000123,,,,,,,,,,,,,,,,,17.76388968200081,j,17.782813959000123,18.281970956000805,j,1,0.5105137000000468,None,18.28258117600035,18.296598466999967,18.296598466999967,18.296598466999967,18.780478265000056,18.802433652000218,18.802433652000218,18.802433652000218,,,,,,,,,,7,7,7,7,2024-06-04_21h47.25.212,N-BACK_primary,2024.1.4,None,2024-06-04 21h47.40.977487 +0800,
14,0,14,0,,,,,,,,,,,,,,,,,,,,,,,,,,,,,,,,,,,,,,,,,,,,,18.802433652000218,,,,,,,,,,,,,,,,,18.78088967000076,j,18.802433652000218,19.249520747000133,j,1,0.44876483799998823,None,19.250160919000336,19.263887044000512,19.263887044000512,19.263887044000512,19.762532144000033,,,,,,,,,,,,,7,7,7,7,2024-06-04_21h47.25.212,N-BACK_primary,2024.1.4,None,2024-06-04 21h47.40.977487 +0800,
15,0,15,0,,,,,,,,,,,,,,,,,,,,,,,,,,,,,,,,,,,,,,,,,,,,,19.781406377000167,,,,,,,,,,,,,,,,,19.762972193000678,f,19.781406377000167,20.248844842000835,j,0,0.4702836779997597,None,20.24948267900072,20.26977678900039,20.26977678900039,20.26977678900039,20.76244228900032,,,,,,,,,,,,,7,7,7,7,2024-06-04_21h47.25.212,N-BACK_primary,2024.1.4,None,2024-06-04 21h47.40.977487 +0800,
16,0,16,0,,,,,,,,,,,,,,,,,,,,,,,,,,,,,,,,,,,,,,,,,,,,,20.780750169000385,,,,,,,,,,,,,,,,,20.762855088000833,j,20.780750169000385,21.28223909100052,j,1,0.5047073609994186,None,21.282858506000593,21.299317677000545,21.299317677000545,21.299317677000545,21.796080692000032,,,,,,,,,,,,,7,7,7,7,2024-06-04_21h47.25.212,N-BACK_primary,2024.1.4,None,2024-06-04 21h47.40.977487 +0800,
17,0,17,0,,,,,,,,,,,,,,,,,,,,,,,,,,,,,,,,,,,,,,,,,,,,,21.815902156999982,,,,,,,,,,,,,,,,,21.79651755500072,j,21.815902156999982,22.347140055000636,j,1,0.5394486739996864,None,22.3477715730005,22.36317868400056,22.36317868400056,22.36317868400056,22.861835938000695,,,,,,,,,,,,,7,7,7,7,2024-06-04_21h47.25.212,N-BACK_primary,2024.1.4,None,2024-06-04 21h47.40.977487 +0800,
18,0,18,0,,,,,,,,,,,,,,,,,,,,,,,,,,,,,,,,,,,,,,,,,,,,,22.88217163200079,,,,,,,,,,,,,,,,,22.862290837000728,j,22.88217163200079,23.880026660000112,j,1,0.995596364999983,None,23.880655886000568,23.894744105999962,23.894744105999962,23.894744105999962,24.379107879000003,24.397030373000234,24.397030373000234,24.397030373000234,,,,,,,,,,7,7,7,7,2024-06-04_21h47.25.212,N-BACK_primary,2024.1.4,None,2024-06-04 21h47.40.977487 +0800,
19,0,19,0,,,,,,,,,,,,,,,,,,,,,,,,,,,,,,,,,,,,,,,,,,,,,24.397030373000234,,,,,,,,,,,,,,,,,24.379512051000347,j,24.397030373000234,25.347288924000168,j,1,0.9583677810005611,None,25.347967857000185,25.362082835000365,25.362082835000365,25.362082835000365,25.846043365000696,25.865618145000553,25.865618145000553,25.865618145000553,,,,,,,,,,7,7,7,7,2024-06-04_21h47.25.212,N-BACK_primary,2024.1.4,None,2024-06-04 21h47.40.977487 +0800,
20,0,20,0,,,,,,,,,,,,,,,,,,,,,,,,,,,,,,,,,,,,,,,,,,,,,25.865618145000553,,,,,,,,,,,,,,,,,25.84644415599996,j,25.865618145000553,26.462971419000496,j,1,0.6023224320006193,None,26.46359532400038,26.479117204999966,26.479117204999966,26.479117204999966,26.96290460900036,26.981649045000268,26.981649045000268,26.981649045000268,,,,,,,,,,7,7,7,7,2024-06-04_21h47.25.212,N-BACK_primary,2024.1.4,None,2024-06-04 21h47.40.977487 +0800,
21,0,21,0,,,,,,,,,,,,,,,,,,,,,,,,,,,,,,,,,,,,,,,,,,,,,26.981649045000268,,,,,,,,,,,,,,,,,26.96339062000061,j,26.981649045000268,27.51358819899997,j,1,0.5365516849997221,None,27.51421491900055,27.529291825000655,27.529291825000655,27.529291825000655,28.01386649699998,28.031978187000277,28.031978187000277,28.031978187000277,,,,,,,,,,7,7,7,7,2024-06-04_21h47.25.212,N-BACK_primary,2024.1.4,None,2024-06-04 21h47.40.977487 +0800,
22,0,22,0,,,,,,,,,,,,,,,,,,,,,,,,,,,,,,,,,,,,,,,,,,,,,28.031978187000277,,,,,,,,,,,,,,,,,28.014310061000288,j,28.031978187000277,28.63039038700026,j,1,0.5935073050004576,None,28.63105781500053,28.644914267000786,28.644914267000786,28.644914267000786,29.130104649000714,29.150196362000315,29.150196362000315,29.150196362000315,,,,,,,,,,7,7,7,7,2024-06-04_21h47.25.212,N-BACK_primary,2024.1.4,None,2024-06-04 21h47.40.977487 +0800,
23,0,23,0,,,,,,,,,,,,,,,,,,,,,,,,,,,,,,,,,,,,,,,,,,,,,29.150196362000315,,,,,,,,,,,,,,,,,29.130582495999988,j,29.150196362000315,30.080356632000075,j,1,0.9271376490005423,None,30.081074903000626,30.09566023500065,30.09566023500065,30.09566023500065,30.578662934000022,30.59590362600011,30.59590362600011,30.59590362600011,,,,,,,,,,7,7,7,7,2024-06-04_21h47.25.212,N-BACK_primary,2024.1.4,None,2024-06-04 21h47.40.977487 +0800,
24,0,24,0,,,,,,,,,,,,,,,,,,,,,,,,,,,,,,,,,,,,,,,,,,,,,30.59590362600011,,,,,,,,,,,,,,,,,30.579085262000262,f,30.59590362600011,31.33000670600086,f,1,0.7296170159997928,None,31.3306286320003,31.344689600000493,31.344689600000493,31.344689600000493,31.829608688000008,31.84766587500053,31.84766587500053,31.84766587500053,,,,,,,,,,7,7,7,7,2024-06-04_21h47.25.212,N-BACK_primary,2024.1.4,None,2024-06-04 21h47.40.977487 +0800,
25,0,25,0,,,,,,,,,,,,,,,,,,,,,,,,,,,,,,,,,,,,,,,,,,,,,31.84766587500053,,,,,,,,,,,,,,,,,31.83001037700069,j,31.84766587500053,32.43052584100042,j,1,0.5933028540002852,None,32.43117625800005,32.446139783000035,32.446139783000035,32.446139783000035,32.92918807700062,32.947873329000686,32.947873329000686,32.947873329000686,,,,,,,,,,7,7,7,7,2024-06-04_21h47.25.212,N-BACK_primary,2024.1.4,None,2024-06-04 21h47.40.977487 +0800,
26,0,26,0,,,,,,,,,,,,,,,,,,,,,,,,,,,,,,,,,,,,,,,,,,,,,32.947873329000686,,,,,,,,,,,,,,,,,32.929586332000326,f,32.947873329000686,33.68010320600024,f,1,0.7279685209996387,None,33.6807549210007,33.69472831300027,33.69472831300027,33.69472831300027,34.178748658000586,34.19645088500056,34.19645088500056,34.19645088500056,,,,,,,,,,7,7,7,7,2024-06-04_21h47.25.212,N-BACK_primary,2024.1.4,None,2024-06-04 21h47.40.977487 +0800,
27,0,27,0,,,,,,,,,,,,,,,,,,,,,,,,,,,,,,,,,,,,,,,,,,,,,34.19645088500056,,,,,,,,,,,,,,,,,34.17915230000017,j,34.19645088500056,34.814693614000134,j,1,0.6272815250003987,None,34.81537235400083,34.83071671400012,34.83071671400012,34.83071671400012,35.32830830900002,,,,,,,,,,,,,7,7,7,7,2024-06-04_21h47.25.212,N-BACK_primary,2024.1.4,None,2024-06-04 21h47.40.977487 +0800,
28,0,28,0,,,,,,,,,,,,,,,,,,,,,,,,,,,,,,,,,,,,,,,,,,,,,35.346183913999994,,,,,,,,,,,,,,,,,35.328743958000814,j,35.346183913999994,35.99660356300046,j,1,0.6462534299998879,None,35.997224458000346,36.01137890800055,36.01137890800055,36.01137890800055,36.495858258000226,36.51589501300077,36.51589501300077,36.51589501300077,,,,,,,,,,7,7,7,7,2024-06-04_21h47.25.212,N-BACK_primary,2024.1.4,None,2024-06-04 21h47.40.977487 +0800,
29,0,29,0,,,,,,,,,,,,,,,,,,,,,,,,,,,,,,,,,,,,,,,,,,,,,36.51589501300077,,,,,,,,,,,,,,,,,36.49627684400002,j,36.51589501300077,37.12987638800041,j,1,0.615258613000151,None,37.13054542200007,37.14627491600004,37.14627491600004,37.14627491600004,37.629394768000566,37.6450173380008,37.6450173380008,37.6450173380008,,,,,,,,,,7,7,7,7,2024-06-04_21h47.25.212,N-BACK_primary,2024.1.4,None,2024-06-04 21h47.40.977487 +0800,
,,,,,,,,,,,,,,,,,,,,,,,,,,,,,,,,,,,,,,,,,,,,,,,,,,,,,,,,37.62945947700064,"{'i=': 11, 'n=': 1, 'len=': 9, 'fix=': 9}",37.6450173380008,37.6450173380008,37.6450173380008,38.84705260999999,space,1.1968078549998609,None,,,,,,,,,,,,,,,,,,,,,,,,,,7,7,7,7,2024-06-04_21h47.25.212,N-BACK_primary,2024.1.4,None,2024-06-04 21h47.40.977487 +0800,
,,,,0,0,0,0,,,,,,,,,,,,,,,,,,,,,,,,,,,,,,,,,,,,,,,,,38.8682636020003,,,,,,,,,,,,,,,,,38.848124708000796,f,38.8682636020003,39.5485513170006,f,1,0.6891896990000532,None,39.54953887300053,39.56767025000045,39.56767025000045,39.56767025000045,40.06206846000077,,,,,,,,,,,,,7,7,7,7,2024-06-04_21h47.25.212,N-BACK_primary,2024.1.4,None,2024-06-04 21h47.40.977487 +0800,
,,,,1,0,1,0,,,,,,,,,,,,,,,,,,,,,,,,,,,,,,,,,,,,,,,,,40.08154366300005,,,,,,,,,,,,,,,,,40.062488579000274,f,40.08154366300005,40.99878785800047,f,1,0.9288121359995785,None,40.9995115870006,41.01626489099999,41.01626489099999,41.01626489099999,41.51169709400074,,,,,,,,,,,,,7,7,7,7,2024-06-04_21h47.25.212,N-BACK_primary,2024.1.4,None,2024-06-04 21h47.40.977487 +0800,
,,,,2,0,2,0,,,,,,,,,,,,,,,,,,,,,,,,,,,,,,,,,,,,,,,,,41.53063747500073,,,,,,,,,,,,,,,,,41.51212736100024,j,41.53063747500073,42.163565265000216,j,1,0.6317099060006512,None,42.164238391000254,42.18351293500018,42.18351293500018,42.18351293500018,42.678714374000265,,,,,,,,,,,,,7,7,7,7,2024-06-04_21h47.25.212,N-BACK_primary,2024.1.4,None,2024-06-04 21h47.40.977487 +0800,
,,,,3,0,3,0,,,,,,,,,,,,,,,,,,,,,,,,,,,,,,,,,,,,,,,,,42.69738264800071,,,,,,,,,,,,,,,,,42.67914956200002,f,42.69738264800071,43.363387481000245,f,1,0.6648265210005775,None,43.36425908900037,43.38233647400011,43.38233647400011,43.38233647400011,43.8789718980006,,,,,,,,,,,,,7,7,7,7,2024-06-04_21h47.25.212,N-BACK_primary,2024.1.4,None,2024-06-04 21h47.40.977487 +0800,
,,,,4,0,4,0,,,,,,,,,,,,,,,,,,,,,,,,,,,,,,,,,,,,,,,,,43.89753568300057,,,,,,,,,,,,,,,,,43.87946933800049,j,43.89753568300057,44.53053171500051,j,1,0.6437708880002901,None,44.531231240000125,44.54834939800003,44.54834939800003,44.54834939800003,45.04545078499996,,,,,,,,,,,,,7,7,7,7,2024-06-04_21h47.25.212,N-BACK_primary,2024.1.4,None,2024-06-04 21h47.40.977487 +0800,
,,,,5,0,5,0,,,,,,,,,,,,,,,,,,,,,,,,,,,,,,,,,,,,,,,,,45.06431385400083,,,,,,,,,,,,,,,,,45.04587183900003,j,45.06431385400083,45.84784693800066,j,1,0.7921081080003205,None,45.84882713600018,45.86453310500019,45.86453310500019,45.86453310500019,46.36155510900062,,,,,,,,,,,,,7,7,7,7,2024-06-04_21h47.25.212,N-BACK_primary,2024.1.4,None,2024-06-04 21h47.40.977487 +0800,
,,,,6,0,6,0,,,,,,,,,,,,,,,,,,,,,,,,,,,,,,,,,,,,,,,,,46.37976496800002,,,,,,,,,,,,,,,,,46.36199634100012,j,46.37976496800002,46.948393057999965,j,1,0.575312287000088,None,46.94903547500053,46.9654706070005,46.9654706070005,46.9654706070005,47.461506815000575,,,,,,,,,,,,,7,7,7,7,2024-06-04_21h47.25.212,N-BACK_primary,2024.1.4,None,2024-06-04 21h47.40.977487 +0800,
,,,,7,0,7,0,,,,,,,,,,,,,,,,,,,,,,,,,,,,,,,,,,,,,,,,,47.47972619900065,,,,,,,,,,,,,,,,,47.461929905000034,j,47.47972619900065,48.09736460000022,j,1,0.628458129000137,None,48.098052801999984,48.12759033100065,48.12759033100065,48.12759033100065,48.61139360700054,,,,,,,,,,,,,7,7,7,7,2024-06-04_21h47.25.212,N-BACK_primary,2024.1.4,None,2024-06-04 21h47.40.977487 +0800,
,,,,8,0,8,0,,,,,,,,,,,,,,,,,,,,,,,,,,,,,,,,,,,,,,,,,48.629332587000135,,,,,,,,,,,,,,,,,48.6118099360001,j,48.629332587000135,49.19720804500048,j,1,0.5696921119997569,None,49.197836499000005,49.214482933,49.214482933,49.214482933,49.71196434000012,,,,,,,,,,,,,7,7,7,7,2024-06-04_21h47.25.212,N-BACK_primary,2024.1.4,None,2024-06-04 21h47.40.977487 +0800,
,,,,9,0,9,0,,,,,,,,,,,,,,,,,,,,,,,,,,,,,,,,,,,,,,,,,49.731182964000254,,,,,,,,,,,,,,,,,49.71239010000045,j,49.731182964000254,50.297207536000315,j,1,0.564957675000187,None,50.29783287800001,50.31274742900041,50.31274742900041,50.31274742900041,50.796077823000815,50.813825981000264,50.813825981000264,50.813825981000264,,,,,,,,,,7,7,7,7,2024-06-04_21h47.25.212,N-BACK_primary,2024.1.4,None,2024-06-04 21h47.40.977487 +0800,
,,,,10,0,10,0,,,,,,,,,,,,,,,,,,,,,,,,,,,,,,,,,,,,,,,,,50.813825981000264,,,,,,,,,,,,,,,,,50.79648444200029,j,50.813825981000264,51.57948747200044,j,1,0.7641177140003492,None,51.58014620800077,51.59692036300021,51.59692036300021,51.59692036300021,52.09545958900071,,,,,,,,,,,,,7,7,7,7,2024-06-04_21h47.25.212,N-BACK_primary,2024.1.4,None,2024-06-04 21h47.40.977487 +0800,
,,,,11,0,11,0,,,,,,,,,,,,,,,,,,,,,,,,,,,,,,,,,,,,,,,,,52.11354341400056,,,,,,,,,,,,,,,,,52.09589205900011,f,52.11354341400056,52.79647352500069,f,1,0.6822450910003681,None,52.79713168200033,52.815262183000414,52.815262183000414,52.815262183000414,53.31122821400004,,,,,,,,,,,,,7,7,7,7,2024-06-04_21h47.25.212,N-BACK_primary,2024.1.4,None,2024-06-04 21h47.40.977487 +0800,
,,,,12,0,12,0,,,,,,,,,,,,,,,,,,,,,,,,,,,,,,,,,,,,,,,,,53.32869265000045,,,,,,,,,,,,,,,,,53.31164763200013,j,53.32869265000045,53.91298175300017,j,1,0.586609979000059,None,53.91361337200033,53.92919983700085,53.92919983700085,53.92919983700085,54.412278968000464,54.4314044190005,54.4314044190005,54.4314044190005,,,,,,,,,,7,7,7,7,2024-06-04_21h47.25.212,N-BACK_primary,2024.1.4,None,2024-06-04 21h47.40.977487 +0800,
,,,,13,0,13,0,,,,,,,,,,,,,,,,,,,,,,,,,,,,,,,,,,,,,,,,,54.4314044190005,,,,,,,,,,,,,,,,,54.4126809950003,j,54.4314044190005,54.99711759300044,j,1,0.577725879999889,None,54.997775936000835,55.013234963000286,55.013234963000286,55.013234963000286,55.49645513800078,55.51509182800055,55.51509182800055,55.51509182800055,,,,,,,,,,7,7,7,7,2024-06-04_21h47.25.212,N-BACK_primary,2024.1.4,None,2024-06-04 21h47.40.977487 +0800,
,,,,14,0,14,0,,,,,,,,,,,,,,,,,,,,,,,,,,,,,,,,,,,,,,,,,55.51509182800055,,,,,,,,,,,,,,,,,55.496890615000666,j,55.51509182800055,56.04595653200067,j,1,0.5331993130002957,None,56.04659073000039,56.06231086700063,56.06231086700063,56.06231086700063,56.54561401000046,56.56370326600063,56.56370326600063,56.56370326600063,,,,,,,,,,7,7,7,7,2024-06-04_21h47.25.212,N-BACK_primary,2024.1.4,None,2024-06-04 21h47.40.977487 +0800,
,,,,15,0,15,0,,,,,,,,,,,,,,,,,,,,,,,,,,,,,,,,,,,,,,,,,56.56370326600063,,,,,,,,,,,,,,,,,56.546053744000346,j,56.56370326600063,57.14638043600007,j,1,0.5780331319992911,None,57.1470018480004,57.162031698000646,57.162031698000646,57.162031698000646,57.64594932300042,57.663640060000034,57.663640060000034,57.663640060000034,,,,,,,,,,7,7,7,7,2024-06-04_21h47.25.212,N-BACK_primary,2024.1.4,None,2024-06-04 21h47.40.977487 +0800,
,,,,16,0,16,0,,,,,,,,,,,,,,,,,,,,,,,,,,,,,,,,,,,,,,,,,57.663640060000034,,,,,,,,,,,,,,,,,57.646362170999964,j,57.663640060000034,58.212513984,j,1,0.5512769429997206,None,58.213160772000265,58.229329508000774,58.229329508000774,58.229329508000774,58.72831337900061,,,,,,,,,,,,,7,7,7,7,2024-06-04_21h47.25.212,N-BACK_primary,2024.1.4,None,2024-06-04 21h47.40.977487 +0800,
,,,,17,0,17,0,,,,,,,,,,,,,,,,,,,,,,,,,,,,,,,,,,,,,,,,,58.74663674200019,,,,,,,,,,,,,,,,,58.72878660300012,f,58.74663674200019,59.23196230600024,f,1,0.49179390799963585,None,59.23257499900046,59.24761496800056,59.24761496800056,59.24761496800056,59.7449750400001,,,,,,,,,,,,,7,7,7,7,2024-06-04_21h47.25.212,N-BACK_primary,2024.1.4,None,2024-06-04 21h47.40.977487 +0800,
,,,,18,0,18,0,,,,,,,,,,,,,,,,,,,,,,,,,,,,,,,,,,,,,,,,,59.763004577000174,,,,,,,,,,,,,,,,,59.745415232000596,j,59.763004577000174,60.23651696500019,j,1,0.46441012699960993,None,60.237268384000345,60.251253653000276,60.251253653000276,60.251253653000276,60.74550191700018,,,,,,,,,,,,,7,7,7,7,2024-06-04_21h47.25.212,N-BACK_primary,2024.1.4,None,2024-06-04 21h47.40.977487 +0800,
,,,,19,0,19,0,,,,,,,,,,,,,,,,,,,,,,,,,,,,,,,,,,,,,,,,,60.76354628700028,,,,,,,,,,,,,,,,,60.745954098000766,j,60.76354628700028,61.29594043200086,j,1,0.5333477239992135,None,61.29660121699999,61.31274420000045,61.31274420000045,61.31274420000045,61.796117916000185,61.814873078000346,61.814873078000346,61.814873078000346,,,,,,,,,,7,7,7,7,2024-06-04_21h47.25.212,N-BACK_primary,2024.1.4,None,2024-06-04 21h47.40.977487 +0800,
,,,,20,0,20,0,,,,,,,,,,,,,,,,,,,,,,,,,,,,,,,,,,,,,,,,,61.814873078000346,,,,,,,,,,,,,,,,,61.796522809000635,f,61.814873078000346,62.395690774000286,f,1,0.5769937129998652,None,62.396321347000594,62.41101910500038,62.41101910500038,62.41101910500038,62.896037206000074,62.91330855800061,62.91330855800061,62.91330855800061,,,,,,,,,,7,7,7,7,2024-06-04_21h47.25.212,N-BACK_primary,2024.1.4,None,2024-06-04 21h47.40.977487 +0800,
,,,,21,0,21,0,,,,,,,,,,,,,,,,,,,,,,,,,,,,,,,,,,,,,,,,,62.91330855800061,,,,,,,,,,,,,,,,,62.89644802000021,j,62.91330855800061,63.39960481700018,j,1,0.4791848750001009,None,63.40023482200013,63.4132756150002,63.4132756150002,63.4132756150002,63.91144479000013,,,,,,,,,,,,,7,7,7,7,2024-06-04_21h47.25.212,N-BACK_primary,2024.1.4,None,2024-06-04 21h47.40.977487 +0800,
,,,,22,0,22,0,,,,,,,,,,,,,,,,,,,,,,,,,,,,,,,,,,,,,,,,,63.93048290700062,,,,,,,,,,,,,,,,,63.91188193900052,j,63.93048290700062,64.38251684400075,j,1,0.45918169600008696,None,64.38314030000038,64.39923423800064,64.39923423800064,64.39923423800064,64.89452144300049,,,,,,,,,,,,,7,7,7,7,2024-06-04_21h47.25.212,N-BACK_primary,2024.1.4,None,2024-06-04 21h47.40.977487 +0800,
,,,,23,0,23,0,,,,,,,,,,,,,,,,,,,,,,,,,,,,,,,,,,,,,,,,,64.92696360300033,,,,,,,,,,,,,,,,,64.8949409300003,j,64.92696360300033,65.44734561100086,j,1,0.544987709000452,None,65.44798939900011,65.46344100500028,65.46344100500028,65.46344100500028,65.96104852999997,,,,,,,,,,,,,7,7,7,7,2024-06-04_21h47.25.212,N-BACK_primary,2024.1.4,None,2024-06-04 21h47.40.977487 +0800,
,,,,24,0,24,0,,,,,,,,,,,,,,,,,,,,,,,,,,,,,,,,,,,,,,,,,65.9790824870006,,,,,,,,,,,,,,,,,65.96147073700013,j,65.9790824870006,66.46497229700071,j,1,0.49191700399933325,None,66.46559599800003,66.49381568300032,66.49381568300032,66.49381568300032,66.97833285700017,,,,,,,,,,,,,7,7,7,7,2024-06-04_21h47.25.212,N-BACK_primary,2024.1.4,None,2024-06-04 21h47.40.977487 +0800,
,,,,25,0,25,0,,,,,,,,,,,,,,,,,,,,,,,,,,,,,,,,,,,,,,,,,66.99791128800007,,,,,,,,,,,,,,,,,66.97877430400058,j,66.99791128800007,67.49866651800039,j,1,0.5119129379991136,None,67.49977280000076,67.51546221200078,67.51546221200078,67.51546221200078,68.0117749810006,,,,,,,,,,,,,7,7,7,7,2024-06-04_21h47.25.212,N-BACK_primary,2024.1.4,None,2024-06-04 21h47.40.977487 +0800,
,,,,26,0,26,0,,,,,,,,,,,,,,,,,,,,,,,,,,,,,,,,,,,,,,,,,68.03101034200063,,,,,,,,,,,,,,,,,68.01227754299998,j,68.03101034200063,68.54569605100005,j,1,0.5191435679998904,None,68.54632476500046,68.56201209500068,68.56201209500068,68.56201209500068,69.04547035200085,69.06350992300031,69.06350992300031,69.06350992300031,,,,,,,,,,7,7,7,7,2024-06-04_21h47.25.212,N-BACK_primary,2024.1.4,None,2024-06-04 21h47.40.977487 +0800,
,,,,27,0,27,0,,,,,,,,,,,,,,,,,,,,,,,,,,,,,,,,,,,,,,,,,69.06350992300031,,,,,,,,,,,,,,,,,69.04588499800047,f,69.06350992300031,69.6135852970001,f,1,0.5471943580005245,None,69.61422001900064,69.62892678900062,69.62892678900062,69.62892678900062,70.11210854000001,70.13083579600061,70.13083579600061,70.13083579600061,,,,,,,,,,7,7,7,7,2024-06-04_21h47.25.212,N-BACK_primary,2024.1.4,None,2024-06-04 21h47.40.977487 +0800,
,,,,28,0,28,0,,,,,,,,,,,,,,,,,,,,,,,,,,,,,,,,,,,,,,,,,70.13083579600061,,,,,,,,,,,,,,,,,70.1125281200002,j,70.13083579600061,70.68194596900048,j,1,0.5537600859997838,None,70.68268416000046,70.69965775200035,70.69965775200035,70.69965775200035,71.1944651570002,,,,,,,,,,,,,7,7,7,7,2024-06-04_21h47.25.212,N-BACK_primary,2024.1.4,None,2024-06-04 21h47.40.977487 +0800,
,,,,29,0,29,0,,,,,,,,,,,,,,,,,,,,,,,,,,,,,,,,,,,,,,,,,71.21283727500031,,,,,,,,,,,,,,,,,71.19488483000077,f,71.21283727500031,71.78055265200055,f,1,0.577279322999857,None,71.78133800200067,71.79738510900006,71.79738510900006,71.79738510900006,72.29486676500073,,,,,,,,,,,,,7,7,7,7,2024-06-04_21h47.25.212,N-BACK_primary,2024.1.4,None,2024-06-04 21h47.40.977487 +0800,
,,,,,,,,,,,,,,,,,,,,,,,,,,,,,,,,,,,,,,,,,,,,,,,,,,,,,,,,72.29493431300034,"{'i=': 10, 'n=': 1, 'len=': 18, 'fix=': 1}",72.31084318900048,72.31084318900048,72.31084318900048,73.23030060200017,space,0.91404574399985,None,,,,,,,,,,,,,,,,,,,,,,,,,,7,7,7,7,2024-06-04_21h47.25.212,N-BACK_primary,2024.1.4,None,2024-06-04 21h47.40.977487 +0800,
,,,,,,,,0,0,0,0,,,,,,,,,,,,,,,,,,,,,,,,,,,,,,,,,,,,,73.25674399400032,,,,,,,,,,,,,,,,,73.232610131,j,73.25674399400032,74.02996720300052,j,1,0.7874390349998066,None,74.03092292900055,74.04515847700077,74.04515847700077,74.04515847700077,74.52860587000032,74.54775229799998,74.54775229799998,74.54775229799998,,,,,,,,,,7,7,7,7,2024-06-04_21h47.25.212,N-BACK_primary,2024.1.4,None,2024-06-04 21h47.40.977487 +0800,
,,,,,,,,1,0,1,0,,,,,,,,,,,,,,,,,,,,,,,,,,,,,,,,,,,,,74.54775229799998,,,,,,,,,,,,,,,,,74.52905934700084,j,74.54775229799998,75.37983160600015,j,1,0.8289546310006699,None,75.38077580800018,75.39476147000005,75.39476147000005,75.39476147000005,75.87854631900063,75.89858390500012,75.89858390500012,75.89858390500012,,,,,,,,,,7,7,7,7,2024-06-04_21h47.25.212,N-BACK_primary,2024.1.4,None,2024-06-04 21h47.40.977487 +0800,
,,,,,,,,2,0,2,0,,,,,,,,,,,,,,,,,,,,,,,,,,,,,,,,,,,,,75.89858390500012,,,,,,,,,,,,,,,,,75.87899099900005,f,75.89858390500012,76.66259030400033,j,0,0.7669668770004137,None,76.66332330800014,76.67992813000001,76.67992813000001,76.67992813000001,77.17854846200044,,,,,,,,,,,,,7,7,7,7,2024-06-04_21h47.25.212,N-BACK_primary,2024.1.4,None,2024-06-04 21h47.40.977487 +0800,
,,,,,,,,3,0,3,0,,,,,,,,,,,,,,,,,,,,,,,,,,,,,,,,,,,,,77.19774574000076,,,,,,,,,,,,,,,,,77.17900524000015,j,77.19774574000076,77.91289039700041,j,1,0.7228055649993621,None,77.9136108800003,77.93066962400007,77.93066962400007,77.93066962400007,78.42813099500017,,,,,,,,,,,,,7,7,7,7,2024-06-04_21h47.25.212,N-BACK_primary,2024.1.4,None,2024-06-04 21h47.40.977487 +0800,
,,,,,,,,4,0,4,0,,,,,,,,,,,,,,,,,,,,,,,,,,,,,,,,,,,,,78.44668704200012,,,,,,,,,,,,,,,,,78.42860723400008,f,78.44668704200012,79.16412916900026,f,1,0.7278019309997035,None,79.1648854670002,79.18033884300075,79.18033884300075,79.18033884300075,79.67867089600077,,,,,,,,,,,,,7,7,7,7,2024-06-04_21h47.25.212,N-BACK_primary,2024.1.4,None,2024-06-04 21h47.40.977487 +0800,
,,,,,,,,5,0,5,0,,,,,,,,,,,,,,,,,,,,,,,,,,,,,,,,,,,,,79.69818579599996,,,,,,,,,,,,,,,,,79.67914904500049,j,79.69818579599996,80.26444633600022,j,1,0.5758762870000282,None,80.26528758900076,80.29386937300023,80.29386937300023,80.29386937300023,80.7784893400003,,,,,,,,,,,,,7,7,7,7,2024-06-04_21h47.25.212,N-BACK_primary,2024.1.4,None,2024-06-04 21h47.40.977487 +0800,
,,,,,,,,6,0,6,0,,,,,,,,,,,,,,,,,,,,,,,,,,,,,,,,,,,,,80.79677018800066,,,,,,,,,,,,,,,,,80.77894131100038,j,80.79677018800066,81.36241139499998,j,1,0.5692035439997198,None,81.36313567100024,81.37866176900025,81.37866176900025,81.37866176900025,81.86175707300026,81.88056832200073,81.88056832200073,81.88056832200073,,,,,,,,,,7,7,7,7,2024-06-04_21h47.25.212,N-BACK_primary,2024.1.4,None,2024-06-04 21h47.40.977487 +0800,
,,,,,,,,7,0,7,0,,,,,,,,,,,,,,,,,,,,,,,,,,,,,,,,,,,,,81.88056832200073,,,,,,,,,,,,,,,,,81.86220557300021,j,81.88056832200073,82.51238082100008,j,1,0.6277364689995011,None,82.51327003300048,82.52734387400051,82.52734387400051,82.52734387400051,83.01318323800024,83.03287898100007,83.03287898100007,83.03287898100007,,,,,,,,,,7,7,7,7,2024-06-04_21h47.25.212,N-BACK_primary,2024.1.4,None,2024-06-04 21h47.40.977487 +0800,
,,,,,,,,8,0,8,0,,,,,,,,,,,,,,,,,,,,,,,,,,,,,,,,,,,,,83.03287898100007,,,,,,,,,,,,,,,,,83.01370609100013,f,83.03287898100007,83.69554302200049,f,1,0.6600071100001514,None,83.69625338700007,83.71078264600055,83.71078264600055,83.71078264600055,84.19502519800062,84.21276794900041,84.21276794900041,84.21276794900041,,,,,,,,,,7,7,7,7,2024-06-04_21h47.25.212,N-BACK_primary,2024.1.4,None,2024-06-04 21h47.40.977487 +0800,
,,,,,,,,9,0,9,0,,,,,,,,,,,,,,,,,,,,,,,,,,,,,,,,,,,,,84.21276794900041,,,,,,,,,,,,,,,,,84.19547557200076,j,84.21276794900041,84.81217625000045,j,1,0.6037818009999683,None,84.81289771400043,84.82830056300008,84.82830056300008,84.82830056300008,85.31223544100067,85.33053387700056,85.33053387700056,85.33053387700056,,,,,,,,,,7,7,7,7,2024-06-04_21h47.25.212,N-BACK_primary,2024.1.4,None,2024-06-04 21h47.40.977487 +0800,
,,,,,,,,10,0,10,0,,,,,,,,,,,,,,,,,,,,,,,,,,,,,,,,,,,,,85.33053387700056,,,,,,,,,,,,,,,,,85.3126931680008,j,85.33053387700056,86.04602998700011,j,1,0.7226860900000247,None,86.04674443800013,86.06245331000082,86.06245331000082,86.06245331000082,86.56078116000026,,,,,,,,,,,,,7,7,7,7,2024-06-04_21h47.25.212,N-BACK_primary,2024.1.4,None,2024-06-04 21h47.40.977487 +0800,
,,,,,,,,11,0,11,0,,,,,,,,,,,,,,,,,,,,,,,,,,,,,,,,,,,,,86.57955393500015,,,,,,,,,,,,,,,,,86.56125687800068,j,86.57955393500015,87.16238370300016,j,1,0.5842609279998214,None,87.16310815200086,87.17819381800018,87.17819381800018,87.17819381800018,87.66263306400015,87.68182121400059,87.68182121400059,87.68182121400059,,,,,,,,,,7,7,7,7,2024-06-04_21h47.25.212,N-BACK_primary,2024.1.4,None,2024-06-04 21h47.40.977487 +0800,
,,,,,,,,12,0,12,0,,,,,,,,,,,,,,,,,,,,,,,,,,,,,,,,,,,,,87.68182121400059,,,,,,,,,,,,,,,,,87.663123628,j,87.68182121400059,88.18152418700083,j,1,0.5027929770003539,None,88.18233683900053,88.19840745000056,88.19840745000056,88.19840745000056,88.69496213800085,,,,,,,,,,,,,7,7,7,7,2024-06-04_21h47.25.212,N-BACK_primary,2024.1.4,None,2024-06-04 21h47.40.977487 +0800,
,,,,,,,,13,0,13,0,,,,,,,,,,,,,,,,,,,,,,,,,,,,,,,,,,,,,88.71430102200065,,,,,,,,,,,,,,,,,88.69542563600044,j,88.71430102200065,89.22902414300006,j,1,0.5114440540000942,None,89.229734173,89.24409872900014,89.24409872900014,89.24409872900014,89.72905424400051,89.74769844399998,89.74769844399998,89.74769844399998,,,,,,,,,,7,7,7,7,2024-06-04_21h47.25.212,N-BACK_primary,2024.1.4,None,2024-06-04 21h47.40.977487 +0800,
,,,,,,,,14,0,14,0,,,,,,,,,,,,,,,,,,,,,,,,,,,,,,,,,,,,,89.74769844399998,,,,,,,,,,,,,,,,,89.72949961100039,f,89.74769844399998,90.3459186150003,f,1,0.6027949409999565,None,90.34666495400052,90.36243334400024,90.36243334400024,90.36243334400024,90.86122289700052,,,,,,,,,,,,,7,7,7,7,2024-06-04_21h47.25.212,N-BACK_primary,2024.1.4,None,2024-06-04 21h47.40.977487 +0800,
,,,,,,,,15,0,15,0,,,,,,,,,,,,,,,,,,,,,,,,,,,,,,,,,,,,,90.8802588260005,,,,,,,,,,,,,,,,,90.86168407200057,j,90.8802588260005,91.31388618900019,j,1,0.4448506200005795,None,91.31472256300003,91.33010851800009,91.33010851800009,91.33010851800009,91.82739490400036,,,,,,,,,,,,,7,7,7,7,2024-06-04_21h47.25.212,N-BACK_primary,2024.1.4,None,2024-06-04 21h47.40.977487 +0800,
,,,,,,,,16,0,16,0,,,,,,,,,,,,,,,,,,,,,,,,,,,,,,,,,,,,,91.84677846900013,,,,,,,,,,,,,,,,,91.82784477200039,j,91.84677846900013,92.34542998300003,j,1,0.5018311409994567,None,92.34614070900079,92.36173677000079,92.36173677000079,92.36173677000079,92.84501958100009,92.86352918300054,92.86352918300054,92.86352918300054,,,,,,,,,,7,7,7,7,2024-06-04_21h47.25.212,N-BACK_primary,2024.1.4,None,2024-06-04 21h47.40.977487 +0800,
,,,,,,,,17,0,17,0,,,,,,,,,,,,,,,,,,,,,,,,,,,,,,,,,,,,,92.86352918300054,,,,,,,,,,,,,,,,,92.84548220100078,j,92.86352918300054,93.41208530200038,j,1,0.5445016720004787,None,93.41280301200004,93.4273172510002,93.4273172510002,93.4273172510002,93.91204523700071,93.9296329430008,93.9296329430008,93.9296329430008,,,,,,,,,,7,7,7,7,2024-06-04_21h47.25.212,N-BACK_primary,2024.1.4,None,2024-06-04 21h47.40.977487 +0800,
,,,,,,,,18,0,18,0,,,,,,,,,,,,,,,,,,,,,,,,,,,,,,,,,,,,,93.9296329430008,,,,,,,,,,,,,,,,,93.91250222500003,f,93.9296329430008,94.74592342000051,f,1,0.8248928410002918,None,94.74665507300051,94.76328841200029,94.76328841200029,94.76328841200029,95.26113099100075,,,,,,,,,,,,,7,7,7,7,2024-06-04_21h47.25.212,N-BACK_primary,2024.1.4,None,2024-06-04 21h47.40.977487 +0800,
,,,,,,,,19,0,19,0,,,,,,,,,,,,,,,,,,,,,,,,,,,,,,,,,,,,,95.27917134100062,,,,,,,,,,,,,,,,,95.26161404600043,j,95.27917134100062,95.79548840300049,j,1,0.5158243719997699,None,95.79619571100011,95.81193797700053,95.81193797700053,95.81193797700053,96.3110892300001,,,,,,,,,,,,,7,7,7,7,2024-06-04_21h47.25.212,N-BACK_primary,2024.1.4,None,2024-06-04 21h47.40.977487 +0800,
,,,,,,,,20,0,20,0,,,,,,,,,,,,,,,,,,,,,,,,,,,,,,,,,,,,,96.32933419800065,,,,,,,,,,,,,,,,,96.31157229100063,f,96.32933419800065,97.07889605700075,f,1,0.747841962000166,None,97.07964278300005,97.09495536800023,97.09495536800023,97.09495536800023,97.57875586500086,97.59767508500045,97.59767508500045,97.59767508500045,,,,,,,,,,7,7,7,7,2024-06-04_21h47.25.212,N-BACK_primary,2024.1.4,None,2024-06-04 21h47.40.977487 +0800,
,,,,,,,,21,0,21,0,,,,,,,,,,,,,,,,,,,,,,,,,,,,,,,,,,,,,97.59767508500045,,,,,,,,,,,,,,,,,97.57921402500051,j,97.59767508500045,98.17923029700069,j,1,0.5842494389999047,None,98.17995233400052,98.19475555700046,98.19475555700046,98.19475555700046,98.67841657700046,98.69738356200014,98.69738356200014,98.69738356200014,,,,,,,,,,7,7,7,7,2024-06-04_21h47.25.212,N-BACK_primary,2024.1.4,None,2024-06-04 21h47.40.977487 +0800,
,,,,,,,,22,0,22,0,,,,,,,,,,,,,,,,,,,,,,,,,,,,,,,,,,,,,98.69738356200014,,,,,,,,,,,,,,,,,98.67888589300037,j,98.69738356200014,99.36241341100049,j,1,0.666638029000751,None,99.36315553400073,99.3784780370006,99.3784780370006,99.3784780370006,99.86168965300021,99.88041554500069,99.88041554500069,99.88041554500069,,,,,,,,,,7,7,7,7,2024-06-04_21h47.25.212,N-BACK_primary,2024.1.4,None,2024-06-04 21h47.40.977487 +0800,
,,,,,,,,23,0,23,0,,,,,,,,,,,,,,,,,,,,,,,,,,,,,,,,,,,,,99.88041554500069,,,,,,,,,,,,,,,,,99.86215093900046,f,99.88041554500069,100.44701796900063,f,1,0.5709220509997976,None,100.44782124300036,100.46172081700024,100.46172081700024,100.46172081700024,100.94488424600058,100.96538093900017,100.96538093900017,100.96538093900017,,,,,,,,,,7,7,7,7,2024-06-04_21h47.25.212,N-BACK_primary,2024.1.4,None,2024-06-04 21h47.40.977487 +0800,
,,,,,,,,24,0,24,0,,,,,,,,,,,,,,,,,,,,,,,,,,,,,,,,,,,,,100.96538093900017,,,,,,,,,,,,,,,,,100.94535730700045,j,100.96538093900017,101.5117838340002,j,1,0.543287474999488,None,101.51249937800003,101.52715409700068,101.52715409700068,101.52715409700068,102.0116585350006,102.03027688900056,102.03027688900056,102.03027688900056,,,,,,,,,,7,7,7,7,2024-06-04_21h47.25.212,N-BACK_primary,2024.1.4,None,2024-06-04 21h47.40.977487 +0800,
,,,,,,,,25,0,25,0,,,,,,,,,,,,,,,,,,,,,,,,,,,,,,,,,,,,,102.03027688900056,,,,,,,,,,,,,,,,,102.01212742799999,f,102.03027688900056,102.64568890900046,f,1,0.6136828400003651,None,102.64641064300031,102.66179549800017,102.66179549800017,102.66179549800017,103.16107028500028,,,,,,,,,,,,,7,7,7,7,2024-06-04_21h47.25.212,N-BACK_primary,2024.1.4,None,2024-06-04 21h47.40.977487 +0800,
,,,,,,,,26,0,26,0,,,,,,,,,,,,,,,,,,,,,,,,,,,,,,,,,,,,,103.18037942400042,,,,,,,,,,,,,,,,,103.16154710400042,j,103.18037942400042,103.97877190500003,j,1,0.8021837299993422,None,103.97948760000054,103.99552525000036,103.99552525000036,103.99552525000036,104.49438356200062,,,,,,,,,,,,,7,7,7,7,2024-06-04_21h47.25.212,N-BACK_primary,2024.1.4,None,2024-06-04 21h47.40.977487 +0800,
,,,,,,,,27,0,27,0,,,,,,,,,,,,,,,,,,,,,,,,,,,,,,,,,,,,,104.51347119800084,,,,,,,,,,,,,,,,,104.49486594700011,j,104.51347119800084,105.36286998300056,j,1,0.8608635299997331,None,105.36362929400002,105.37907039500078,105.37907039500078,105.37907039500078,105.86248654000065,105.88057974800086,105.88057974800086,105.88057974800086,,,,,,,,,,7,7,7,7,2024-06-04_21h47.25.212,N-BACK_primary,2024.1.4,None,2024-06-04 21h47.40.977487 +0800,
,,,,,,,,28,0,28,0,,,,,,,,,,,,,,,,,,,,,,,,,,,,,,,,,,,,,105.88057974800086,,,,,,,,,,,,,,,,,105.86297423100041,j,105.88057974800086,106.54715433100046,j,1,0.6706109979995745,None,106.54834658500022,106.56497170500006,106.56497170500006,106.56497170500006,107.06166749100066,,,,,,,,,,,,,7,7,7,7,2024-06-04_21h47.25.212,N-BACK_primary,2024.1.4,None,2024-06-04 21h47.40.977487 +0800,
,,,,,,,,29,0,29,0,,,,,,,,,,,,,,,,,,,,,,,,,,,,,,,,,,,,,107.0806051920008,,,,,,,,,,,,,,,,,107.06212524000057,j,107.0806051920008,107.78094280000005,j,1,0.7042168320003839,None,107.7824020370008,107.80073685900061,107.80073685900061,107.80073685900061,108.29480908700043,,,,,,,,,,,,,7,7,7,7,2024-06-04_21h47.25.212,N-BACK_primary,2024.1.4,None,2024-06-04 21h47.40.977487 +0800,
,,,,,,,,30,0,30,0,,,,,,,,,,,,,,,,,,,,,,,,,,,,,,,,,,,,,108.31374809700083,,,,,,,,,,,,,,,,,108.29529133899996,j,108.31374809700083,108.79528542300068,j,1,0.4830841060002058,None,108.79599163500006,108.81130402800045,108.81130402800045,108.81130402800045,109.29471003500021,109.31436876200041,109.31436876200041,109.31436876200041,,,,,,,,,,7,7,7,7,2024-06-04_21h47.25.212,N-BACK_primary,2024.1.4,None,2024-06-04 21h47.40.977487 +0800,
,,,,,,,,31,0,31,0,,,,,,,,,,,,,,,,,,,,,,,,,,,,,,,,,,,,,109.31436876200041,,,,,,,,,,,,,,,,,109.29515826500028,j,109.31436876200041,109.82867857600013,j,1,0.5196860889991513,None,109.8293833430007,109.84440970000014,109.84440970000014,109.84440970000014,110.32796796100047,110.34750624300068,110.34750624300068,110.34750624300068,,,,,,,,,,7,7,7,7,2024-06-04_21h47.25.212,N-BACK_primary,2024.1.4,None,2024-06-04 21h47.40.977487 +0800,
,,,,,,,,32,0,32,0,,,,,,,,,,,,,,,,,,,,,,,,,,,,,,,,,,,,,110.34750624300068,,,,,,,,,,,,,,,,,110.32842202200027,j,110.34750624300068,110.86215539300065,j,1,0.5175740919994496,None,110.86287529100082,110.879028329,110.879028329,110.879028329,111.37768530300036,,,,,,,,,,,,,7,7,7,7,2024-06-04_21h47.25.212,N-BACK_primary,2024.1.4,None,2024-06-04 21h47.40.977487 +0800,
,,,,,,,,33,0,33,0,,,,,,,,,,,,,,,,,,,,,,,,,,,,,,,,,,,,,111.3957838870001,,,,,,,,,,,,,,,,,111.37818982099998,j,111.3957838870001,112.09609424500013,j,1,0.7027469479999127,None,112.09686032700029,112.11154280400024,112.11154280400024,112.11154280400024,112.59463895500085,112.61367852100011,112.61367852100011,112.61367852100011,,,,,,,,,,7,7,7,7,2024-06-04_21h47.25.212,N-BACK_primary,2024.1.4,None,2024-06-04 21h47.40.977487 +0800,
,,,,,,,,34,0,34,0,,,,,,,,,,,,,,,,,,,,,,,,,,,,,,,,,,,,,112.61367852100011,,,,,,,,,,,,,,,,,112.59510043700084,j,112.61367852100011,113.23240278100002,j,1,0.6108828149999681,None,113.23323523600084,113.24600836800073,113.24600836800073,113.24600836800073,113.74379982100072,,,,,,,,,,,,,7,7,7,7,2024-06-04_21h47.25.212,N-BACK_primary,2024.1.4,None,2024-06-04 21h47.40.977487 +0800,
,,,,,,,,35,0,35,0,,,,,,,,,,,,,,,,,,,,,,,,,,,,,,,,,,,,,113.76144611900054,,,,,,,,,,,,,,,,,113.74426025600042,j,113.76144611900054,114.26301298800081,j,1,0.49861383799998293,None,114.26372741000068,114.27783051300048,114.27783051300048,114.27783051300048,114.76160356500077,114.77911483300068,114.77911483300068,114.77911483300068,,,,,,,,,,7,7,7,7,2024-06-04_21h47.25.212,N-BACK_primary,2024.1.4,None,2024-06-04 21h47.40.977487 +0800,
,,,,,,,,36,0,36,0,,,,,,,,,,,,,,,,,,,,,,,,,,,,,,,,,,,,,114.77911483300068,,,,,,,,,,,,,,,,,114.76204515800055,j,114.77911483300068,115.36345742600042,j,1,0.577593214999979,None,115.36424573900058,115.37764249500015,115.37764249500015,115.37764249500015,115.86153014900083,115.87983479700051,115.87983479700051,115.87983479700051,,,,,,,,,,7,7,7,7,2024-06-04_21h47.25.212,N-BACK_primary,2024.1.4,None,2024-06-04 21h47.40.977487 +0800,
,,,,,,,,37,0,37,0,,,,,,,,,,,,,,,,,,,,,,,,,,,,,,,,,,,,,115.87983479700051,,,,,,,,,,,,,,,,,115.86198482100008,j,115.87983479700051,116.34666562100028,j,1,0.46666024400019523,None,116.34755547000077,116.3642120100003,116.3642120100003,116.3642120100003,116.86091060500075,,,,,,,,,,,,,7,7,7,7,2024-06-04_21h47.25.212,N-BACK_primary,2024.1.4,None,2024-06-04 21h47.40.977487 +0800,
,,,,,,,,38,0,38,0,,,,,,,,,,,,,,,,,,,,,,,,,,,,,,,,,,,,,116.879057053,,,,,,,,,,,,,,,,,116.86135965200083,j,116.879057053,117.3624080440004,j,1,0.4908202970000275,None,117.36312543300028,117.37807061100011,117.37807061100011,117.37807061100011,117.86188848100028,117.87965895300022,117.87965895300022,117.87965895300022,,,,,,,,,,7,7,7,7,2024-06-04_21h47.25.212,N-BACK_primary,2024.1.4,None,2024-06-04 21h47.40.977487 +0800,
,,,,,,,,39,0,39,0,,,,,,,,,,,,,,,,,,,,,,,,,,,,,,,,,,,,,117.87965895300022,,,,,,,,,,,,,,,,,117.86233380800059,f,117.87965895300022,118.59670566300065,f,1,0.7265131370004383,None,118.59762628500084,118.61342849700031,118.61342849700031,118.61342849700031,119.11087882500033,,,,,,,,,,,,,7,7,7,7,2024-06-04_21h47.25.212,N-BACK_primary,2024.1.4,None,2024-06-04 21h47.40.977487 +0800,
,,,,,,,,,,,,,,,,,,,,,,,,,,,,,,,,,,,,,,,,,,,,,,,,,,,,,,,,119.11094344000048,"{'i=': 9, 'n=': 1, 'len=': 18, 'fix=': 9}",119.12682113700066,119.12682113700066,119.12682113700066,120.77951738200045,space,1.641613208000308,None,,,,,,,,,,,,,,,,,,,,,,,,,,7,7,7,7,2024-06-04_21h47.25.212,N-BACK_primary,2024.1.4,None,2024-06-04 21h47.40.977487 +0800,
,,,,,,,,,,,,0,0,0,0,,,,,,,,,,,,,,,,,,,,,,,,,,,,,,,,,120.80319961800069,,,,,,,,,,,,,,,,,120.78077590900011,f,120.80319961800069,121.61354530600056,f,1,0.8238968200003001,None,121.61451641200074,121.6304160970003,121.6304160970003,121.6304160970003,122.12783876600042,,,,,,,,,,,,,7,7,7,7,2024-06-04_21h47.25.212,N-BACK_primary,2024.1.4,None,2024-06-04 21h47.40.977487 +0800,
,,,,,,,,,,,,1,0,1,0,,,,,,,,,,,,,,,,,,,,,,,,,,,,,,,,,122.14671642600024,,,,,,,,,,,,,,,,,122.12831466400075,j,122.14671642600024,122.79611422000016,j,1,0.6601062049994653,None,122.79684285200074,122.81193014100063,122.81193014100063,122.81193014100063,123.29553232300077,123.31477358300072,123.31477358300072,123.31477358300072,,,,,,,,,,7,7,7,7,2024-06-04_21h47.25.212,N-BACK_primary,2024.1.4,None,2024-06-04 21h47.40.977487 +0800,
,,,,,,,,,,,,2,0,2,0,,,,,,,,,,,,,,,,,,,,,,,,,,,,,,,,,123.31477358300072,,,,,,,,,,,,,,,,,123.2960154020002,j,123.31477358300072,123.87929462100055,j,1,0.5758036149991312,None,123.88000514600026,123.89560203100064,123.89560203100064,123.89560203100064,124.3945567740002,,,,,,,,,,,,,7,7,7,7,2024-06-04_21h47.25.212,N-BACK_primary,2024.1.4,None,2024-06-04 21h47.40.977487 +0800,
,,,,,,,,,,,,3,0,3,0,,,,,,,,,,,,,,,,,,,,,,,,,,,,,,,,,124.41379889500058,,,,,,,,,,,,,,,,,124.39503901400076,j,124.41379889500058,125.01191080200078,j,1,0.5951622709999356,None,125.01261979400078,125.02707698000086,125.02707698000086,125.02707698000086,125.51200909400086,125.52975221400084,125.52975221400084,125.52975221400084,,,,,,,,,,7,7,7,7,2024-06-04_21h47.25.212,N-BACK_primary,2024.1.4,None,2024-06-04 21h47.40.977487 +0800,
,,,,,,,,,,,,4,0,4,0,,,,,,,,,,,,,,,,,,,,,,,,,,,,,,,,,125.52975221400084,,,,,,,,,,,,,,,,,125.51245399400068,j,125.52975221400084,126.1459890390006,j,1,0.61322949300029,None,126.1466994070006,126.16148969900041,126.16148969900041,126.16148969900041,126.64460899900041,126.66340858100011,126.66340858100011,126.66340858100011,,,,,,,,,,7,7,7,7,2024-06-04_21h47.25.212,N-BACK_primary,2024.1.4,None,2024-06-04 21h47.40.977487 +0800,
,,,,,,,,,,,,5,0,5,0,,,,,,,,,,,,,,,,,,,,,,,,,,,,,,,,,126.66340858100011,,,,,,,,,,,,,,,,,126.64506044600057,j,126.66340858100011,127.14521545400021,j,1,0.48716253399925336,None,127.14592255700063,127.16148501400039,127.16148501400039,127.16148501400039,127.64508693000062,127.6625812430002,127.6625812430002,127.6625812430002,,,,,,,,,,7,7,7,7,2024-06-04_21h47.25.212,N-BACK_primary,2024.1.4,None,2024-06-04 21h47.40.977487 +0800,
,,,,,,,,,,,,6,0,6,0,,,,,,,,,,,,,,,,,,,,,,,,,,,,,,,,,127.6625812430002,,,,,,,,,,,,,,,,,127.6455701190007,f,127.6625812430002,128.39614228100072,f,1,0.7395332509995569,None,128.39686414800053,128.42583793000085,128.42583793000085,128.42583793000085,128.9106583060002,,,,,,,,,,,,,7,7,7,7,2024-06-04_21h47.25.212,N-BACK_primary,2024.1.4,None,2024-06-04 21h47.40.977487 +0800,
,,,,,,,,,,,,7,0,7,0,,,,,,,,,,,,,,,,,,,,,,,,,,,,,,,,,128.92866175400013,,,,,,,,,,,,,,,,,128.911141691,j,128.92866175400013,129.52938522100067,j,1,0.6060307749994536,None,129.53018568800053,129.54591174300003,129.54591174300003,129.54591174300003,130.04406429900064,,,,,,,,,,,,,7,7,7,7,2024-06-04_21h47.25.212,N-BACK_primary,2024.1.4,None,2024-06-04 21h47.40.977487 +0800,
,,,,,,,,,,,,8,0,8,0,,,,,,,,,,,,,,,,,,,,,,,,,,,,,,,,,130.06231079400004,,,,,,,,,,,,,,,,,130.04453710800044,f,130.06231079400004,130.81259232400043,f,1,0.7455322649993832,None,130.81363284800045,130.8296300710008,130.8296300710008,130.8296300710008,131.3273316450004,,,,,,,,,,,,,7,7,7,7,2024-06-04_21h47.25.212,N-BACK_primary,2024.1.4,None,2024-06-04 21h47.40.977487 +0800,
,,,,,,,,,,,,9,0,9,0,,,,,,,,,,,,,,,,,,,,,,,,,,,,,,,,,131.34601021800063,,,,,,,,,,,,,,,,,131.32779744400068,j,131.34601021800063,131.89489956000034,j,1,0.551399849999143,None,131.8956085640002,131.91083679300027,131.91083679300027,131.91083679300027,132.39457153200055,132.41279191500053,132.41279191500053,132.41279191500053,,,,,,,,,,7,7,7,7,2024-06-04_21h47.25.212,N-BACK_primary,2024.1.4,None,2024-06-04 21h47.40.977487 +0800,
,,,,,,,,,,,,10,0,10,0,,,,,,,,,,,,,,,,,,,,,,,,,,,,,,,,,132.41279191500053,,,,,,,,,,,,,,,,,132.39502809700025,j,132.41279191500053,133.02850575700086,j,1,0.6178679410004406,None,133.02921728,133.04462037100075,133.04462037100075,133.04462037100075,133.52853570600018,133.55161910300012,133.55161910300012,133.55161910300012,,,,,,,,,,7,7,7,7,2024-06-04_21h47.25.212,N-BACK_primary,2024.1.4,None,2024-06-04 21h47.40.977487 +0800,
,,,,,,,,,,,,11,0,11,0,,,,,,,,,,,,,,,,,,,,,,,,,,,,,,,,,133.55161910300012,,,,,,,,,,,,,,,,,133.52900282500013,j,133.55161910300012,134.2628279240007,j,1,0.7261484199998449,None,134.2635805510008,134.27912864300015,134.27912864300015,134.27912864300015,134.7772482650007,,,,,,,,,,,,,7,7,7,7,2024-06-04_21h47.25.212,N-BACK_primary,2024.1.4,None,2024-06-04 21h47.40.977487 +0800,
,,,,,,,,,,,,12,0,12,0,,,,,,,,,,,,,,,,,,,,,,,,,,,,,,,,,134.79482451000058,,,,,,,,,,,,,,,,,134.7777076600005,j,134.79482451000058,135.3616845360002,j,1,0.566356727999846,None,135.36239480300083,135.37786763000076,135.37786763000076,135.37786763000076,135.86193711600026,135.88053617900005,135.88053617900005,135.88053617900005,,,,,,,,,,7,7,7,7,2024-06-04_21h47.25.212,N-BACK_primary,2024.1.4,None,2024-06-04 21h47.40.977487 +0800,
,,,,,,,,,,,,13,0,13,0,,,,,,,,,,,,,,,,,,,,,,,,,,,,,,,,,135.88053617900005,,,,,,,,,,,,,,,,,135.8623982150002,j,135.88053617900005,136.51218966000033,j,1,0.6324446109993005,None,136.51292563700008,136.5278202570007,136.5278202570007,136.5278202570007,137.0272559040004,,,,,,,,,,,,,7,7,7,7,2024-06-04_21h47.25.212,N-BACK_primary,2024.1.4,None,2024-06-04 21h47.40.977487 +0800,
,,,,,,,,,,,,14,0,14,0,,,,,,,,,,,,,,,,,,,,,,,,,,,,,,,,,137.04703164000057,,,,,,,,,,,,,,,,,137.0277415770006,j,137.04703164000057,137.56328862400005,j,1,0.5226272590007284,None,137.56402165300005,137.5809918670002,137.5809918670002,137.5809918670002,138.0776871470007,,,,,,,,,,,,,7,7,7,7,2024-06-04_21h47.25.212,N-BACK_primary,2024.1.4,None,2024-06-04 21h47.40.977487 +0800,
,,,,,,,,,,,,15,0,15,0,,,,,,,,,,,,,,,,,,,,,,,,,,,,,,,,,138.0961913730007,,,,,,,,,,,,,,,,,138.07816602800085,f,138.0961913730007,138.74728431700078,j,0,0.6515421540007083,None,138.74894775600023,138.76711914099997,138.76711914099997,138.76711914099997,139.26000464500066,,,,,,,,,,,,,7,7,7,7,2024-06-04_21h47.25.212,N-BACK_primary,2024.1.4,None,2024-06-04 21h47.40.977487 +0800,
,,,,,,,,,,,,16,0,16,0,,,,,,,,,,,,,,,,,,,,,,,,,,,,,,,,,139.27949252000053,,,,,,,,,,,,,,,,,139.2605425540005,j,139.27949252000053,139.8441921070007,j,1,0.5614819930005979,None,139.84490377900056,139.86073458400006,139.86073458400006,139.86073458400006,140.34443855900008,140.36356806300046,140.36356806300046,140.36356806300046,,,,,,,,,,7,7,7,7,2024-06-04_21h47.25.212,N-BACK_primary,2024.1.4,None,2024-06-04 21h47.40.977487 +0800,
,,,,,,,,,,,,17,0,17,0,,,,,,,,,,,,,,,,,,,,,,,,,,,,,,,,,140.36356806300046,,,,,,,,,,,,,,,,,140.34491834900018,j,140.36356806300046,140.92819180400056,j,1,0.5690402989994254,None,140.92890112200075,140.94465304500045,140.94465304500045,140.94465304500045,141.42773516600028,141.4470389570006,141.4470389570006,141.4470389570006,,,,,,,,,,7,7,7,7,2024-06-04_21h47.25.212,N-BACK_primary,2024.1.4,None,2024-06-04 21h47.40.977487 +0800,
,,,,,,,,,,,,18,0,18,0,,,,,,,,,,,,,,,,,,,,,,,,,,,,,,,,,141.4470389570006,,,,,,,,,,,,,,,,,141.428194868,f,141.4470389570006,142.1454823540007,f,1,0.6957258069996897,None,142.14619169400066,142.1603083760001,142.1603083760001,142.1603083760001,142.64470024100046,142.6623287350003,142.6623287350003,142.6623287350003,,,,,,,,,,7,7,7,7,2024-06-04_21h47.25.212,N-BACK_primary,2024.1.4,None,2024-06-04 21h47.40.977487 +0800,
,,,,,,,,,,,,19,0,19,0,,,,,,,,,,,,,,,,,,,,,,,,,,,,,,,,,142.6623287350003,,,,,,,,,,,,,,,,,142.64516465500037,j,142.6623287350003,143.2448004530006,j,1,0.5852566819994536,None,143.2456132090001,143.26151042100082,143.26151042100082,143.26151042100082,143.76055575300052,,,,,,,,,,,,,7,7,7,7,2024-06-04_21h47.25.212,N-BACK_primary,2024.1.4,None,2024-06-04 21h47.40.977487 +0800,
,,,,,,,,,,,,20,0,20,0,,,,,,,,,,,,,,,,,,,,,,,,,,,,,,,,,143.7794464890003,,,,,,,,,,,,,,,,,143.76101991200085,j,143.7794464890003,144.5286580560005,j,1,0.7454520599994794,None,144.52939296600016,144.54402796000068,144.54402796000068,144.54402796000068,145.0277237220007,145.04688127700047,145.04688127700047,145.04688127700047,,,,,,,,,,7,7,7,7,2024-06-04_21h47.25.212,N-BACK_primary,2024.1.4,None,2024-06-04 21h47.40.977487 +0800,
,,,,,,,,,,,,21,0,21,0,,,,,,,,,,,,,,,,,,,,,,,,,,,,,,,,,145.04688127700047,,,,,,,,,,,,,,,,,145.02817573000084,j,145.04688127700047,145.71381975700024,j,1,0.6708609630004503,None,145.71490704200005,145.7304452190001,145.7304452190001,145.7304452190001,146.22667292799997,,,,,,,,,,,,,7,7,7,7,2024-06-04_21h47.25.212,N-BACK_primary,2024.1.4,None,2024-06-04 21h47.40.977487 +0800,
,,,,,,,,,,,,22,0,22,0,,,,,,,,,,,,,,,,,,,,,,,,,,,,,,,,,146.2447852560008,,,,,,,,,,,,,,,,,146.22712605700053,j,146.2447852560008,147.19508649800082,j,1,0.9486587689998487,None,147.19582539300063,147.2120113840001,147.2120113840001,147.2120113840001,147.71093047500017,,,,,,,,,,,,,7,7,7,7,2024-06-04_21h47.25.212,N-BACK_primary,2024.1.4,None,2024-06-04 21h47.40.977487 +0800,
,,,,,,,,,,,,23,0,23,0,,,,,,,,,,,,,,,,,,,,,,,,,,,,,,,,,147.73009490100048,,,,,,,,,,,,,,,,,147.71139369400044,j,147.73009490100048,148.27795093400073,j,1,0.544261610999456,None,148.278651007,148.29348633900008,148.29348633900008,148.29348633900008,148.77811204800037,148.7956091470005,148.7956091470005,148.7956091470005,,,,,,,,,,7,7,7,7,2024-06-04_21h47.25.212,N-BACK_primary,2024.1.4,None,2024-06-04 21h47.40.977487 +0800,
,,,,,,,,,,,,24,0,24,0,,,,,,,,,,,,,,,,,,,,,,,,,,,,,,,,,148.7956091470005,,,,,,,,,,,,,,,,,148.77857270000004,j,148.7956091470005,149.34478573200067,j,1,0.5532123600005434,None,149.34549989600055,149.36122166400037,149.36122166400037,149.36122166400037,149.84490313100014,149.8626085750002,149.8626085750002,149.8626085750002,,,,,,,,,,7,7,7,7,2024-06-04_21h47.25.212,N-BACK_primary,2024.1.4,None,2024-06-04 21h47.40.977487 +0800,
,,,,,,,,,,,,25,0,25,0,,,,,,,,,,,,,,,,,,,,,,,,,,,,,,,,,149.8626085750002,,,,,,,,,,,,,,,,,149.84537525300038,j,149.8626085750002,150.37962346300083,j,1,0.5108430009995573,None,150.3804938100002,150.39437748199998,150.39437748199998,150.39437748199998,150.87836971100023,150.89639106400045,150.89639106400045,150.89639106400045,,,,,,,,,,7,7,7,7,2024-06-04_21h47.25.212,N-BACK_primary,2024.1.4,None,2024-06-04 21h47.40.977487 +0800,
,,,,,,,,,,,,26,0,26,0,,,,,,,,,,,,,,,,,,,,,,,,,,,,,,,,,150.89639106400045,,,,,,,,,,,,,,,,,150.87883047000014,j,150.89639106400045,151.47835217400007,j,1,0.5775681900004201,None,151.4790708370001,151.49456635300066,151.49456635300066,151.49456635300066,151.97776997600067,151.99713111500023,151.99713111500023,151.99713111500023,,,,,,,,,,7,7,7,7,2024-06-04_21h47.25.212,N-BACK_primary,2024.1.4,None,2024-06-04 21h47.40.977487 +0800,
,,,,,,,,,,,,27,0,27,0,,,,,,,,,,,,,,,,,,,,,,,,,,,,,,,,,151.99713111500023,,,,,,,,,,,,,,,,,151.9782380330007,f,151.99713111500023,152.57846856700053,j,0,0.5780674090001412,None,152.57919716700053,152.59517811600017,152.59517811600017,152.59517811600017,153.0936065880005,,,,,,,,,,,,,7,7,7,7,2024-06-04_21h47.25.212,N-BACK_primary,2024.1.4,None,2024-06-04 21h47.40.977487 +0800,
,,,,,,,,,,,,28,0,28,0,,,,,,,,,,,,,,,,,,,,,,,,,,,,,,,,,153.1134605570005,,,,,,,,,,,,,,,,,153.094074869,j,153.1134605570005,153.6458550110001,j,1,0.5448501599994415,None,153.64657354600058,153.66345596200063,153.66345596200063,153.66345596200063,154.1598653810006,,,,,,,,,,,,,7,7,7,7,2024-06-04_21h47.25.212,N-BACK_primary,2024.1.4,None,2024-06-04 21h47.40.977487 +0800,
,,,,,,,,,,,,29,0,29,0,,,,,,,,,,,,,,,,,,,,,,,,,,,,,,,,,154.1781400660002,,,,,,,,,,,,,,,,,154.16031971600023,j,154.1781400660002,154.62863952099997,j,1,0.4555145630001789,None,154.62941303200023,154.64523914500023,154.64523914500023,154.64523914500023,155.143187613,,,,,,,,,,,,,7,7,7,7,2024-06-04_21h47.25.212,N-BACK_primary,2024.1.4,None,2024-06-04 21h47.40.977487 +0800,
,,,,,,,,,,,,30,0,30,0,,,,,,,,,,,,,,,,,,,,,,,,,,,,,,,,,155.1617309580006,,,,,,,,,,,,,,,,,155.14367965600013,j,155.1617309580006,155.56176483500076,j,1,0.397285367999757,None,155.56278702000054,155.57701444300073,155.57701444300073,155.57701444300073,156.06085745000019,156.0807086520008,156.0807086520008,156.0807086520008,,,,,,,,,,7,7,7,7,2024-06-04_21h47.25.212,N-BACK_primary,2024.1.4,None,2024-06-04 21h47.40.977487 +0800,
,,,,,,,,,,,,31,0,31,0,,,,,,,,,,,,,,,,,,,,,,,,,,,,,,,,,156.0807086520008,,,,,,,,,,,,,,,,,156.0613095660001,f,156.0807086520008,157.03006278800058,j,0,0.9596526919995085,None,157.030796389,157.0489374480003,157.0489374480003,157.0489374480003,157.54345054900023,,,,,,,,,,,,,7,7,7,7,2024-06-04_21h47.25.212,N-BACK_primary,2024.1.4,None,2024-06-04 21h47.40.977487 +0800,
,,,,,,,,,,,,32,0,32,0,,,,,,,,,,,,,,,,,,,,,,,,,,,,,,,,,157.56258287000037,,,,,,,,,,,,,,,,,157.54390397000043,j,157.56258287000037,158.14573009300057,j,1,0.5924693360002493,None,158.14646862300015,158.16441046600085,158.16441046600085,158.16441046600085,158.66032942100082,,,,,,,,,,,,,7,7,7,7,2024-06-04_21h47.25.212,N-BACK_primary,2024.1.4,None,2024-06-04 21h47.40.977487 +0800,
,,,,,,,,,,,,33,0,33,0,,,,,,,,,,,,,,,,,,,,,,,,,,,,,,,,,158.67934699600028,,,,,,,,,,,,,,,,,158.6607939280002,j,158.67934699600028,159.24500448000072,j,1,0.5617567749995942,None,159.24572846900082,159.26012842900036,159.26012842900036,159.26012842900036,159.7440435110002,159.76211398500072,159.76211398500072,159.76211398500072,,,,,,,,,,7,7,7,7,2024-06-04_21h47.25.212,N-BACK_primary,2024.1.4,None,2024-06-04 21h47.40.977487 +0800,
,,,,,,,,,,,,34,0,34,0,,,,,,,,,,,,,,,,,,,,,,,,,,,,,,,,,159.76211398500072,,,,,,,,,,,,,,,,,159.74456439200003,f,159.76211398500072,160.29526479600008,j,0,0.5383138820006934,None,160.2959763280005,160.31283746999998,160.31283746999998,160.31283746999998,160.81017585800055,,,,,,,,,,,,,7,7,7,7,2024-06-04_21h47.25.212,N-BACK_primary,2024.1.4,None,2024-06-04 21h47.40.977487 +0800,
,,,,,,,,,,,,35,0,35,0,,,,,,,,,,,,,,,,,,,,,,,,,,,,,,,,,160.82829078900068,,,,,,,,,,,,,,,,,160.8106453600003,j,160.82829078900068,161.32814732000043,j,1,0.5043059899999207,None,161.32887278199996,161.34641625800032,161.34641625800032,161.34641625800032,161.8434665320001,,,,,,,,,,,,,7,7,7,7,2024-06-04_21h47.25.212,N-BACK_primary,2024.1.4,None,2024-06-04 21h47.40.977487 +0800,
,,,,,,,,,,,,36,0,36,0,,,,,,,,,,,,,,,,,,,,,,,,,,,,,,,,,161.86286582000048,,,,,,,,,,,,,,,,,161.8439360150005,j,161.86286582000048,162.36156942700018,j,1,0.4952736269997331,None,162.3622748350008,162.3771444870008,162.3771444870008,162.3771444870008,162.86094007700012,162.87990518100014,162.87990518100014,162.87990518100014,,,,,,,,,,7,7,7,7,2024-06-04_21h47.25.212,N-BACK_primary,2024.1.4,None,2024-06-04 21h47.40.977487 +0800,
,,,,,,,,,,,,37,0,37,0,,,,,,,,,,,,,,,,,,,,,,,,,,,,,,,,,162.87990518100014,,,,,,,,,,,,,,,,,162.86140762100058,j,162.87990518100014,163.3624353740006,j,1,0.48897246300020925,None,163.3631466300003,163.37847939200037,163.37847939200037,163.37847939200037,163.87830425600077,,,,,,,,,,,,,7,7,7,7,2024-06-04_21h47.25.212,N-BACK_primary,2024.1.4,None,2024-06-04 21h47.40.977487 +0800,
,,,,,,,,,,,,38,0,38,0,,,,,,,,,,,,,,,,,,,,,,,,,,,,,,,,,163.90570309100076,,,,,,,,,,,,,,,,,163.8788950850003,f,163.90570309100076,164.34554018100062,j,0,0.4535526679992472,None,164.34628519000034,164.36458468600085,164.36458468600085,164.36458468600085,164.86014522500045,,,,,,,,,,,,,7,7,7,7,2024-06-04_21h47.25.212,N-BACK_primary,2024.1.4,None,2024-06-04 21h47.40.977487 +0800,
,,,,,,,,,,,,39,0,39,0,,,,,,,,,,,,,,,,,,,,,,,,,,,,,,,,,164.8782746630004,,,,,,,,,,,,,,,,,164.86063562400068,j,164.8782746630004,165.51298452100036,j,1,0.6421596780000982,None,165.5138436950001,165.53210822600067,165.53210822600067,165.53210822600067,166.02718654199998,,,,,,,,,,,,,7,7,7,7,2024-06-04_21h47.25.212,N-BACK_primary,2024.1.4,None,2024-06-04 21h47.40.977487 +0800,
,,,,,,,,,,,,,,,,,,,,,,,,,,,,,,,,,,,,,,,,,,,,,,,,,,,,,,,,166.02725147,"{'i=': 8, 'n=': 2, 'len=': 9, 'fix=': 1}",166.04387367900017,,166.04387367900017,169.56226542500008,space,3.500124591999338,None,,,,,,,,,,,,,,,,,166.04387367900017,166.04387367900017,,,,,,,,7,7,7,7,2024-06-04_21h47.25.212,N-BACK_primary,2024.1.4,None,2024-06-04 21h47.40.977487 +0800,
,,,,,,,,,,,,,,,,0,0,0,0,,,,,,,,,,,,,,,,,,,,,,,,,,,,,169.59247616300036,,,,,,,,,,,,,,,,,169.56372054400072,j,169.59247616300036,170.41210542299996,j,1,0.8190599250001469,None,170.4129680820006,170.42736385700027,170.42736385700027,170.42736385700027,170.9108744540008,170.9285780780001,170.9285780780001,170.9285780780001,,,,,,,,,,7,7,7,7,2024-06-04_21h47.25.212,N-BACK_primary,2024.1.4,None,2024-06-04 21h47.40.977487 +0800,
,,,,,,,,,,,,,,,,1,0,1,0,,,,,,,,,,,,,,,,,,,,,,,,,,,,,170.9285780780001,,,,,,,,,,,,,,,,,170.91128284500064,j,170.9285780780001,171.7286807270002,j,1,0.7985019300003842,None,171.7293311880003,171.74363918000017,171.74363918000017,171.74363918000017,172.22792587599997,172.24647138,172.24647138,172.24647138,,,,,,,,,,7,7,7,7,2024-06-04_21h47.25.212,N-BACK_primary,2024.1.4,None,2024-06-04 21h47.40.977487 +0800,
,,,,,,,,,,,,,,,,2,0,2,0,,,,,,,,,,,,,,,,,,,,,,,,,,,,,172.24647138,,,,,,,,,,,,,,,,,172.2283674400005,f,172.24647138,173.01196035200064,f,1,0.7710242120001567,None,173.01261738700032,173.0274100630004,173.0274100630004,173.0274100630004,173.5107879390007,173.52947863000009,173.52947863000009,173.52947863000009,,,,,,,,,,7,7,7,7,2024-06-04_21h47.25.212,N-BACK_primary,2024.1.4,None,2024-06-04 21h47.40.977487 +0800,
,,,,,,,,,,,,,,,,3,0,3,0,,,,,,,,,,,,,,,,,,,,,,,,,,,,,173.52947863000009,,,,,,,,,,,,,,,,,173.51120455100045,j,173.52947863000009,174.1782230610006,j,1,0.6477179689991317,None,174.17885751000085,174.19409051000002,174.19409051000002,174.19409051000002,174.69322554100017,,,,,,,,,,,,,7,7,7,7,2024-06-04_21h47.25.212,N-BACK_primary,2024.1.4,None,2024-06-04 21h47.40.977487 +0800,
,,,,,,,,,,,,,,,,4,0,4,0,,,,,,,,,,,,,,,,,,,,,,,,,,,,,174.7108004060001,,,,,,,,,,,,,,,,,174.69365804600056,j,174.7108004060001,175.44506042500052,f,0,0.7424903510000149,None,175.44571459800045,175.46233224800017,175.46233224800017,175.46233224800017,175.9606883940005,,,,,,,,,,,,,7,7,7,7,2024-06-04_21h47.25.212,N-BACK_primary,2024.1.4,None,2024-06-04 21h47.40.977487 +0800,
,,,,,,,,,,,,,,,,5,0,5,0,,,,,,,,,,,,,,,,,,,,,,,,,,,,,175.97853933900024,,,,,,,,,,,,,,,,,175.96119487800024,f,175.97853933900024,176.6279748040006,j,0,0.6511283190002359,None,176.62860670700047,176.64418242100055,176.64418242100055,176.64418242100055,177.14343586700033,,,,,,,,,,,,,7,7,7,7,2024-06-04_21h47.25.212,N-BACK_primary,2024.1.4,None,2024-06-04 21h47.40.977487 +0800,
,,,,,,,,,,,,,,,,6,0,6,0,,,,,,,,,,,,,,,,,,,,,,,,,,,,,177.16228108900032,,,,,,,,,,,,,,,,,177.143925114,j,177.16228108900032,178.56141179500082,j,1,1.4024720559991692,None,178.56217261200072,178.58023944100023,178.58023944100023,178.58023944100023,179.07657071500034,,,,,,,,,,,,,7,7,7,7,2024-06-04_21h47.25.212,N-BACK_primary,2024.1.4,None,2024-06-04 21h47.40.977487 +0800,
,,,,,,,,,,,,,,,,7,0,7,0,,,,,,,,,,,,,,,,,,,,,,,,,,,,,179.09694523600047,,,,,,,,,,,,,,,,,179.07697637399997,j,179.09694523600047,179.828249745,j,1,0.7378622510004789,None,179.82887527900039,179.84348101900014,179.84348101900014,179.84348101900014,180.32741644199996,180.34574493800028,180.34574493800028,180.34574493800028,,,,,,,,,,7,7,7,7,2024-06-04_21h47.25.212,N-BACK_primary,2024.1.4,None,2024-06-04 21h47.40.977487 +0800,
,,,,,,,,,,,,,,,,8,0,8,0,,,,,,,,,,,,,,,,,,,,,,,,,,,,,180.34574493800028,,,,,,,,,,,,,,,,,180.3278347990008,f,180.34574493800028,181.09458913900016,f,1,0.7444511550002062,None,181.0952501240008,181.1095522580008,181.1095522580008,181.1095522580008,181.59351964100006,181.61266670500027,181.61266670500027,181.61266670500027,,,,,,,,,,7,7,7,7,2024-06-04_21h47.25.212,N-BACK_primary,2024.1.4,None,2024-06-04 21h47.40.977487 +0800,
,,,,,,,,,,,,,,,,9,0,9,0,,,,,,,,,,,,,,,,,,,,,,,,,,,,,181.61266670500027,,,,,,,,,,,,,,,,,181.59393567400002,j,181.61266670500027,182.26954883500002,j,1,0.6605500370005757,None,182.2705589420002,182.28672322300008,182.28672322300008,182.28672322300008,182.77711507800086,,,,,,,,,,,,,7,7,7,7,2024-06-04_21h47.25.212,N-BACK_primary,2024.1.4,None,2024-06-04 21h47.40.977487 +0800,
,,,,,,,,,,,,,,,,10,0,10,0,,,,,,,,,,,,,,,,,,,,,,,,,,,,,182.79569706300026,,,,,,,,,,,,,,,,,182.77753378200032,j,182.79569706300026,183.5943026140003,j,1,0.800683131000369,None,183.59492736100037,183.61024274700048,183.61024274700048,183.61024274700048,184.09384508300082,184.11281861800035,184.11281861800035,184.11281861800035,,,,,,,,,,7,7,7,7,2024-06-04_21h47.25.212,N-BACK_primary,2024.1.4,None,2024-06-04 21h47.40.977487 +0800,
,,,,,,,,,,,,,,,,11,0,11,0,,,,,,,,,,,,,,,,,,,,,,,,,,,,,184.11281861800035,,,,,,,,,,,,,,,,,184.09430387800057,f,184.11281861800035,184.9459884730004,f,1,0.8426724569999351,None,184.94661842500045,184.9613694970003,184.9613694970003,184.9613694970003,185.44481120600085,185.46320733300035,185.46320733300035,185.46320733300035,,,,,,,,,,7,7,7,7,2024-06-04_21h47.25.212,N-BACK_primary,2024.1.4,None,2024-06-04 21h47.40.977487 +0800,
,,,,,,,,,,,,,,,,12,0,12,0,,,,,,,,,,,,,,,,,,,,,,,,,,,,,185.46320733300035,,,,,,,,,,,,,,,,,185.44526199100073,j,185.46320733300035,186.1778845200006,j,1,0.7095765009999013,None,186.17850862500018,186.19271689200013,186.19271689200013,186.19271689200013,186.6767801650003,186.69483482000032,186.69483482000032,186.69483482000032,,,,,,,,,,7,7,7,7,2024-06-04_21h47.25.212,N-BACK_primary,2024.1.4,None,2024-06-04 21h47.40.977487 +0800,
,,,,,,,,,,,,,,,,13,0,13,0,,,,,,,,,,,,,,,,,,,,,,,,,,,,,186.69483482000032,,,,,,,,,,,,,,,,,186.67720533100055,j,186.69483482000032,187.46215428400046,j,1,0.7685093560003224,None,187.4628005480008,187.47782199200083,187.47782199200083,187.47782199200083,187.97617346100014,,,,,,,,,,,,,7,7,7,7,2024-06-04_21h47.25.212,N-BACK_primary,2024.1.4,None,2024-06-04 21h47.40.977487 +0800,
,,,,,,,,,,,,,,,,14,0,14,0,,,,,,,,,,,,,,,,,,,,,,,,,,,,,187.99630442800026,,,,,,,,,,,,,,,,,187.9765974490001,f,187.99630442800026,189.1279095310001,f,1,1.1334274909995656,None,189.12855394000053,189.14418188000036,189.14418188000036,189.14418188000036,189.62757957600024,189.6456351910001,189.6456351910001,189.6456351910001,,,,,,,,,,7,7,7,7,2024-06-04_21h47.25.212,N-BACK_primary,2024.1.4,None,2024-06-04 21h47.40.977487 +0800,
,,,,,,,,,,,,,,,,15,0,15,0,,,,,,,,,,,,,,,,,,,,,,,,,,,,,189.6456351910001,,,,,,,,,,,,,,,,,189.62798119200033,j,189.6456351910001,190.3631227170008,j,1,0.7229098640000302,None,190.36376408200067,190.37945020200004,190.37945020200004,190.37945020200004,190.87613512100052,,,,,,,,,,,,,7,7,7,7,2024-06-04_21h47.25.212,N-BACK_primary,2024.1.4,None,2024-06-04 21h47.40.977487 +0800,
,,,,,,,,,,,,,,,,16,0,16,0,,,,,,,,,,,,,,,,,,,,,,,,,,,,,190.89539574800074,,,,,,,,,,,,,,,,,190.87655798800006,j,190.89539574800074,191.7946424390002,j,1,0.899686247000318,None,191.79528358600055,191.81078663000062,191.81078663000062,191.81078663000062,192.3102410950005,,,,,,,,,,,,,7,7,7,7,2024-06-04_21h47.25.212,N-BACK_primary,2024.1.4,None,2024-06-04 21h47.40.977487 +0800,
,,,,,,,,,,,,,,,,17,0,17,0,,,,,,,,,,,,,,,,,,,,,,,,,,,,,192.3281528180005,,,,,,,,,,,,,,,,,192.31068789000074,f,192.3281528180005,193.47787175400026,j,0,1.148276858999452,None,193.4785100600002,193.49470272899998,193.49470272899998,193.49470272899998,193.99307992800004,,,,,,,,,,,,,7,7,7,7,2024-06-04_21h47.25.212,N-BACK_primary,2024.1.4,None,2024-06-04 21h47.40.977487 +0800,
,,,,,,,,,,,,,,,,18,0,18,0,,,,,,,,,,,,,,,,,,,,,,,,,,,,,194.0129138830007,,,,,,,,,,,,,,,,,193.99350170400066,j,194.0129138830007,195.16155827500006,j,1,1.1451433709999037,None,195.16220897400035,195.17800511800033,195.17800511800033,195.17800511800033,195.67636814200068,,,,,,,,,,,,,7,7,7,7,2024-06-04_21h47.25.212,N-BACK_primary,2024.1.4,None,2024-06-04 21h47.40.977487 +0800,
,,,,,,,,,,,,,,,,19,0,19,0,,,,,,,,,,,,,,,,,,,,,,,,,,,,,195.69479756000055,,,,,,,,,,,,,,,,,195.67677819000073,j,195.69479756000055,196.34417484300047,j,1,0.6495453089992225,None,196.3448077990006,196.3605493110008,196.3605493110008,196.3605493110008,196.8436476370007,196.8623559940006,196.8623559940006,196.8623559940006,,,,,,,,,,7,7,7,7,2024-06-04_21h47.25.212,N-BACK_primary,2024.1.4,None,2024-06-04 21h47.40.977487 +0800,
,,,,,,,,,,,,,,,,20,0,20,0,,,,,,,,,,,,,,,,,,,,,,,,,,,,,196.8623559940006,,,,,,,,,,,,,,,,,196.84407389700027,f,196.8623559940006,198.19418964600027,f,1,1.3340860850003082,None,198.194823068,198.21075324499998,198.21075324499998,198.21075324499998,198.6946950470001,198.71596694600066,198.71596694600066,198.71596694600066,,,,,,,,,,7,7,7,7,2024-06-04_21h47.25.212,N-BACK_primary,2024.1.4,None,2024-06-04 21h47.40.977487 +0800,
,,,,,,,,,,,,,,,,21,0,21,0,,,,,,,,,,,,,,,,,,,,,,,,,,,,,198.71596694600066,,,,,,,,,,,,,,,,,198.69516381500034,j,198.71596694600066,199.37852894200023,j,1,0.6633741189998545,None,199.37925200500013,199.39392374100044,199.39392374100044,199.39392374100044,199.89344863099996,,,,,,,,,,,,,7,7,7,7,2024-06-04_21h47.25.212,N-BACK_primary,2024.1.4,None,2024-06-04 21h47.40.977487 +0800,
,,,,,,,,,,,,,,,,22,0,22,0,,,,,,,,,,,,,,,,,,,,,,,,,,,,,199.91288587300005,,,,,,,,,,,,,,,,,199.89386887399996,j,199.91288587300005,200.64431952400082,j,1,0.7378360330003488,None,200.64499090000027,200.65986964900003,200.65986964900003,200.65986964900003,201.143711918,201.16258805899997,201.16258805899997,201.16258805899997,,,,,,,,,,7,7,7,7,2024-06-04_21h47.25.212,N-BACK_primary,2024.1.4,None,2024-06-04 21h47.40.977487 +0800,
,,,,,,,,,,,,,,,,23,0,23,0,,,,,,,,,,,,,,,,,,,,,,,,,,,,,201.16258805899997,,,,,,,,,,,,,,,,,201.14412964300027,f,201.16258805899997,202.11120529600066,f,1,0.9472745270004452,None,202.1118341650008,202.1275582620001,202.1275582620001,202.1275582620001,202.626348754,,,,,,,,,,,,,7,7,7,7,2024-06-04_21h47.25.212,N-BACK_primary,2024.1.4,None,2024-06-04 21h47.40.977487 +0800,
,,,,,,,,,,,,,,,,24,0,24,0,,,,,,,,,,,,,,,,,,,,,,,,,,,,,202.64503256200078,,,,,,,,,,,,,,,,,202.62678883100034,f,202.64503256200078,203.7614939160003,j,0,1.1175186069995107,None,203.76276507400053,203.78251071000068,203.78251071000068,203.78251071000068,204.27766375300052,,,,,,,,,,,,,7,7,7,7,2024-06-04_21h47.25.212,N-BACK_primary,2024.1.4,None,2024-06-04 21h47.40.977487 +0800,
,,,,,,,,,,,,,,,,25,0,25,0,,,,,,,,,,,,,,,,,,,,,,,,,,,,,204.2964042980002,,,,,,,,,,,,,,,,,204.27815338500022,f,204.2964042980002,206.4276014090001,f,1,2.1295177640004113,None,206.42829985300068,206.44532861400057,206.44532861400057,206.44532861400057,206.94300011700034,,,,,,,,,,,,,7,7,7,7,2024-06-04_21h47.25.212,N-BACK_primary,2024.1.4,None,2024-06-04 21h47.40.977487 +0800,
,,,,,,,,,,,,,,,,26,0,26,0,,,,,,,,,,,,,,,,,,,,,,,,,,,,,206.96250005100046,,,,,,,,,,,,,,,,,206.94342299000073,f,206.96250005100046,208.2110267750004,j,0,1.2479762749999281,None,208.21167611800047,208.2284307630007,208.2284307630007,208.2284307630007,208.72629960500035,,,,,,,,,,,,,7,7,7,7,2024-06-04_21h47.25.212,N-BACK_primary,2024.1.4,None,2024-06-04 21h47.40.977487 +0800,
,,,,,,,,,,,,,,,,27,0,27,0,,,,,,,,,,,,,,,,,,,,,,,,,,,,,208.74521940600061,,,,,,,,,,,,,,,,,208.72672348300057,j,208.74521940600061,209.56178603200078,f,0,0.8269949559999077,None,209.56243790400003,209.57711000200015,209.57711000200015,209.57711000200015,210.07621058600034,,,,,,,,,,,,,7,7,7,7,2024-06-04_21h47.25.212,N-BACK_primary,2024.1.4,None,2024-06-04 21h47.40.977487 +0800,
,,,,,,,,,,,,,,,,28,0,28,0,,,,,,,,,,,,,,,,,,,,,,,,,,,,,210.09668871900067,,,,,,,,,,,,,,,,,210.07662798100046,j,210.09668871900067,210.77847139200003,j,1,0.688885016000313,None,210.7790998420005,210.79635553000026,210.79635553000026,210.79635553000026,211.29305890500018,,,,,,,,,,,,,7,7,7,7,2024-06-04_21h47.25.212,N-BACK_primary,2024.1.4,None,2024-06-04 21h47.40.977487 +0800,
,,,,,,,,,,,,,,,,29,0,29,0,,,,,,,,,,,,,,,,,,,,,,,,,,,,,211.31144864199996,,,,,,,,,,,,,,,,,211.29348434400072,f,211.31144864199996,211.96250382000017,j,0,0.6544485920003353,None,211.96326733000024,211.9804407820002,211.9804407820002,211.9804407820002,212.47716219200083,,,,,,,,,,,,,7,7,7,7,2024-06-04_21h47.25.212,N-BACK_primary,2024.1.4,None,2024-06-04 21h47.40.977487 +0800,
,,,,,,,,,,,,,,,,,,,,,,,,,,,,,,,,,,,,,,,,,,,,,,,,,,,,,,,,212.47722737100048,"{'i=': 7, 'n=': 2, 'len=': 9, 'fix=': 9}",212.49353559700012,,212.49353559700012,214.51139018200047,space,2.0065465559991935,None,,,,,,,,,,,,,,,,,212.49353559700012,212.49353559700012,,,,,,,,7,7,7,7,2024-06-04_21h47.25.212,N-BACK_primary,2024.1.4,None,2024-06-04 21h47.40.977487 +0800,
,,,,,,,,,,,,,,,,,,,,0,0,0,0,,,,,,,,,,,,,,,,,,,,,,,,,214.5367918940001,,,,,,,,,,,,,,,,,214.5125975990004,j,214.5367918940001,215.3444388880007,j,1,0.8108766209998066,None,215.3452808310003,215.3641744760007,215.3641744760007,215.3641744760007,215.8593488280003,,,,,,,,,,,,,7,7,7,7,2024-06-04_21h47.25.212,N-BACK_primary,2024.1.4,None,2024-06-04 21h47.40.977487 +0800,
,,,,,,,,,,,,,,,,,,,,1,0,1,0,,,,,,,,,,,,,,,,,,,,,,,,,215.8777870010008,,,,,,,,,,,,,,,,,215.8597884110004,j,215.8777870010008,216.57813557700047,j,1,0.6961925670002529,None,216.57886787500047,216.59359558300002,216.59359558300002,216.59359558300002,217.076642215,217.09547287500027,217.09547287500027,217.09547287500027,,,,,,,,,,7,7,7,7,2024-06-04_21h47.25.212,N-BACK_primary,2024.1.4,None,2024-06-04 21h47.40.977487 +0800,
,,,,,,,,,,,,,,,,,,,,2,0,2,0,,,,,,,,,,,,,,,,,,,,,,,,,217.09547287500027,,,,,,,,,,,,,,,,,217.0770497500007,f,217.09547287500027,217.87908943800085,j,0,0.7901660650004487,None,217.8797218690006,217.89555828800076,217.89555828800076,217.89555828800076,218.39297667000028,,,,,,,,,,,,,7,7,7,7,2024-06-04_21h47.25.212,N-BACK_primary,2024.1.4,None,2024-06-04 21h47.40.977487 +0800,
,,,,,,,,,,,,,,,,,,,,3,0,3,0,,,,,,,,,,,,,,,,,,,,,,,,,218.4122033930007,,,,,,,,,,,,,,,,,218.39342633900014,j,218.4122033930007,218.97769952199997,j,1,0.5722358189996157,None,218.97831893700004,218.996748691,218.996748691,218.996748691,219.49293602700072,,,,,,,,,,,,,7,7,7,7,2024-06-04_21h47.25.212,N-BACK_primary,2024.1.4,None,2024-06-04 21h47.40.977487 +0800,
,,,,,,,,,,,,,,,,,,,,4,0,4,0,,,,,,,,,,,,,,,,,,,,,,,,,219.51181553800052,,,,,,,,,,,,,,,,,219.49335604800035,j,219.51181553800052,219.77935139700003,j,1,0.27117694100070366,None,219.77997839600084,219.7946771450006,219.7946771450006,219.7946771450006,220.29331391699998,,,,,,,,,,,,,7,7,7,7,2024-06-04_21h47.25.212,N-BACK_primary,2024.1.4,None,2024-06-04 21h47.40.977487 +0800,
,,,,,,,,,,,,,,,,,,,,5,0,5,0,,,,,,,,,,,,,,,,,,,,,,,,,220.31127801800085,,,,,,,,,,,,,,,,,220.29389072400045,f,220.31127801800085,220.6462491150005,j,0,0.3329412399998546,None,220.64687447699998,220.66501369300022,220.66501369300022,220.66501369300022,221.1592877490002,,,,,,,,,,,,,7,7,7,7,2024-06-04_21h47.25.212,N-BACK_primary,2024.1.4,None,2024-06-04 21h47.40.977487 +0800,
,,,,,,,,,,,,,,,,,,,,6,0,6,0,,,,,,,,,,,,,,,,,,,,,,,,,221.17834855100045,,,,,,,,,,,,,,,,,221.15969778400085,j,221.17834855100045,221.5297192980006,j,1,0.3598071579999669,None,221.53034159300023,221.5473724100002,221.5473724100002,221.5473724100002,222.04333329300061,,,,,,,,,,,,,7,7,7,7,2024-06-04_21h47.25.212,N-BACK_primary,2024.1.4,None,2024-06-04 21h47.40.977487 +0800,
,,,,,,,,,,,,,,,,,,,,7,0,7,0,,,,,,,,,,,,,,,,,,,,,,,,,222.0617429190006,,,,,,,,,,,,,,,,,222.04374247300075,j,222.0617429190006,222.77797379800086,j,1,0.7265119670000786,None,222.77862600900062,222.79443884100056,222.79443884100056,222.79443884100056,223.29259828500017,,,,,,,,,,,,,7,7,7,7,2024-06-04_21h47.25.212,N-BACK_primary,2024.1.4,None,2024-06-04 21h47.40.977487 +0800,
,,,,,,,,,,,,,,,,,,,,8,0,8,0,,,,,,,,,,,,,,,,,,,,,,,,,223.31219958900056,,,,,,,,,,,,,,,,,223.29301280600066,f,223.31219958900056,223.91104148700015,j,0,0.5960717600000862,None,223.91167357700033,223.92725795200022,223.92725795200022,223.92725795200022,224.42605194700081,,,,,,,,,,,,,7,7,7,7,2024-06-04_21h47.25.212,N-BACK_primary,2024.1.4,None,2024-06-04 21h47.40.977487 +0800,
,,,,,,,,,,,,,,,,,,,,9,0,9,0,,,,,,,,,,,,,,,,,,,,,,,,,224.44534175400076,,,,,,,,,,,,,,,,,224.4264584850007,j,224.44534175400076,225.16168267900048,j,1,0.7190119850001793,None,225.16268057100024,225.18270645900066,225.18270645900066,225.18270645900066,225.67666185600046,,,,,,,,,,,,,7,7,7,7,2024-06-04_21h47.25.212,N-BACK_primary,2024.1.4,None,2024-06-04 21h47.40.977487 +0800,
,,,,,,,,,,,,,,,,,,,,10,0,10,0,,,,,,,,,,,,,,,,,,,,,,,,,225.69639182400078,,,,,,,,,,,,,,,,,225.67709914400075,f,225.69639182400078,226.32780752300005,j,0,0.6274856569998519,None,226.32847047800078,226.3429586810007,226.3429586810007,226.3429586810007,226.82706126500034,226.84490477500003,226.84490477500003,226.84490477500003,,,,,,,,,,7,7,7,7,2024-06-04_21h47.25.212,N-BACK_primary,2024.1.4,None,2024-06-04 21h47.40.977487 +0800,
,,,,,,,,,,,,,,,,,,,,11,0,11,0,,,,,,,,,,,,,,,,,,,,,,,,,226.84490477500003,,,,,,,,,,,,,,,,,226.82747390000077,f,226.84490477500003,227.5449513170006,j,0,0.7071736480002073,None,227.54557414900046,227.56356057800076,227.56356057800076,227.56356057800076,228.05920702800086,,,,,,,,,,,,,7,7,7,7,2024-06-04_21h47.25.212,N-BACK_primary,2024.1.4,None,2024-06-04 21h47.40.977487 +0800,
,,,,,,,,,,,,,,,,,,,,12,0,12,0,,,,,,,,,,,,,,,,,,,,,,,,,228.07689212600053,,,,,,,,,,,,,,,,,228.05962364600055,f,228.07689212600053,228.77868739400037,j,0,0.6965695240005516,None,228.7794405220002,228.79422201200032,228.79422201200032,228.79422201200032,229.29256320700006,,,,,,,,,,,,,7,7,7,7,2024-06-04_21h47.25.212,N-BACK_primary,2024.1.4,None,2024-06-04 21h47.40.977487 +0800,
,,,,,,,,,,,,,,,,,,,,13,0,13,0,,,,,,,,,,,,,,,,,,,,,,,,,229.3100673300005,,,,,,,,,,,,,,,,,229.2929879940002,j,229.3100673300005,230.04407657800039,j,1,0.7364386310000555,None,230.04469264300042,230.06157181800063,230.06157181800063,230.06157181800063,230.5592183000008,,,,,,,,,,,,,7,7,7,7,2024-06-04_21h47.25.212,N-BACK_primary,2024.1.4,None,2024-06-04 21h47.40.977487 +0800,
,,,,,,,,,,,,,,,,,,,,14,0,14,0,,,,,,,,,,,,,,,,,,,,,,,,,230.57724280900038,,,,,,,,,,,,,,,,,230.55963687800067,f,230.57724280900038,231.34511700300027,j,0,0.772299514000224,None,231.34574459300075,231.36375904100078,231.36375904100078,231.36375904100078,231.85932514700016,,,,,,,,,,,,,7,7,7,7,2024-06-04_21h47.25.212,N-BACK_primary,2024.1.4,None,2024-06-04 21h47.40.977487 +0800,
,,,,,,,,,,,,,,,,,,,,15,0,15,0,,,,,,,,,,,,,,,,,,,,,,,,,231.87780925900006,,,,,,,,,,,,,,,,,231.85976316300003,j,231.87780925900006,232.5613660930003,j,1,0.679950025000835,None,232.5620143570004,232.5779072080004,232.5779072080004,232.5779072080004,233.07664262100025,,,,,,,,,,,,,7,7,7,7,2024-06-04_21h47.25.212,N-BACK_primary,2024.1.4,None,2024-06-04 21h47.40.977487 +0800,
,,,,,,,,,,,,,,,,,,,,16,0,16,0,,,,,,,,,,,,,,,,,,,,,,,,,233.09587408600055,,,,,,,,,,,,,,,,,233.0770617800008,f,233.09587408600055,233.91131035600029,j,0,0.819851023999945,None,233.91194059900045,233.9303417680003,233.9303417680003,233.9303417680003,234.42596463800055,,,,,,,,,,,,,7,7,7,7,2024-06-04_21h47.25.212,N-BACK_primary,2024.1.4,None,2024-06-04 21h47.40.977487 +0800,
,,,,,,,,,,,,,,,,,,,,17,0,17,0,,,,,,,,,,,,,,,,,,,,,,,,,234.4453547790008,,,,,,,,,,,,,,,,,234.42639764200067,f,234.4453547790008,235.09407410900076,j,0,0.6317134460005036,None,235.09471104400018,235.11222771400026,235.11222771400026,235.11222771400026,235.6094619560008,,,,,,,,,,,,,7,7,7,7,2024-06-04_21h47.25.212,N-BACK_primary,2024.1.4,None,2024-06-04 21h47.40.977487 +0800,
,,,,,,,,,,,,,,,,,,,,18,0,18,0,,,,,,,,,,,,,,,,,,,,,,,,,235.62810770300075,,,,,,,,,,,,,,,,,235.60987882900008,j,235.62810770300075,236.37912386800053,j,1,0.7502595960004328,None,236.380557124,236.3980656270005,236.3980656270005,236.3980656270005,236.89322892100063,,,,,,,,,,,,,7,7,7,7,2024-06-04_21h47.25.212,N-BACK_primary,2024.1.4,None,2024-06-04 21h47.40.977487 +0800,
,,,,,,,,,,,,,,,,,,,,19,0,19,0,,,,,,,,,,,,,,,,,,,,,,,,,236.9120152180003,,,,,,,,,,,,,,,,,236.89364729700083,j,236.9120152180003,237.66147408800043,j,1,0.7488049390003653,None,237.6621021710007,237.67675084800067,237.67675084800067,237.67675084800067,238.16035275500053,238.17839339500006,238.17839339500006,238.17839339500006,,,,,,,,,,7,7,7,7,2024-06-04_21h47.25.212,N-BACK_primary,2024.1.4,None,2024-06-04 21h47.40.977487 +0800,
,,,,,,,,,,,,,,,,,,,,20,0,20,0,,,,,,,,,,,,,,,,,,,,,,,,,238.17839339500006,,,,,,,,,,,,,,,,,238.16077380600018,f,238.17839339500006,238.94440763200055,j,0,0.7761118739999802,None,238.94504071700067,238.9628849970004,238.9628849970004,238.9628849970004,239.45914347800044,,,,,,,,,,,,,7,7,7,7,2024-06-04_21h47.25.212,N-BACK_primary,2024.1.4,None,2024-06-04 21h47.40.977487 +0800,
,,,,,,,,,,,,,,,,,,,,21,0,21,0,,,,,,,,,,,,,,,,,,,,,,,,,239.477157499,,,,,,,,,,,,,,,,,239.4595490970005,j,239.477157499,240.1620594750002,j,1,0.6853730489992813,None,240.16299150500072,240.1813103680006,240.1813103680006,240.1813103680006,240.67563043100017,,,,,,,,,,,,,7,7,7,7,2024-06-04_21h47.25.212,N-BACK_primary,2024.1.4,None,2024-06-04 21h47.40.977487 +0800,
,,,,,,,,,,,,,,,,,,,,22,0,22,0,,,,,,,,,,,,,,,,,,,,,,,,,240.6933940480003,,,,,,,,,,,,,,,,,240.67604419600048,j,240.6933940480003,241.49467869199998,j,1,0.8114027829997212,None,241.4953126750006,241.51126332400054,241.51126332400054,241.51126332400054,242.0090656120001,,,,,,,,,,,,,7,7,7,7,2024-06-04_21h47.25.212,N-BACK_primary,2024.1.4,None,2024-06-04 21h47.40.977487 +0800,
,,,,,,,,,,,,,,,,,,,,23,0,23,0,,,,,,,,,,,,,,,,,,,,,,,,,242.0281512750007,,,,,,,,,,,,,,,,,242.00950396900043,f,242.0281512750007,242.72816183100076,j,0,0.6951330550000421,None,242.72882334600035,242.74507851100043,242.74507851100043,242.74507851100043,243.2426845300006,,,,,,,,,,,,,7,7,7,7,2024-06-04_21h47.25.212,N-BACK_primary,2024.1.4,None,2024-06-04 21h47.40.977487 +0800,
,,,,,,,,,,,,,,,,,,,,24,0,24,0,,,,,,,,,,,,,,,,,,,,,,,,,243.26050691399996,,,,,,,,,,,,,,,,,243.24309142000038,j,243.26050691399996,244.02734572100053,j,1,0.7649409340001512,None,244.02801253500002,244.0456980430008,244.0456980430008,244.0456980430008,244.542759209,,,,,,,,,,,,,7,7,7,7,2024-06-04_21h47.25.212,N-BACK_primary,2024.1.4,None,2024-06-04 21h47.40.977487 +0800,
,,,,,,,,,,,,,,,,,,,,25,0,25,0,,,,,,,,,,,,,,,,,,,,,,,,,244.56307530600043,,,,,,,,,,,,,,,,,244.5432042100001,j,244.56307530600043,245.3274890190005,j,1,0.7599197660001664,None,245.3281305140008,245.3421818530005,245.3421818530005,245.3421818530005,245.82654903800085,245.8459453530004,245.8459453530004,245.8459453530004,,,,,,,,,,7,7,7,7,2024-06-04_21h47.25.212,N-BACK_primary,2024.1.4,None,2024-06-04 21h47.40.977487 +0800,
,,,,,,,,,,,,,,,,,,,,26,0,26,0,,,,,,,,,,,,,,,,,,,,,,,,,245.8459453530004,,,,,,,,,,,,,,,,,245.8269591390008,f,245.8459453530004,246.6280620460002,j,0,0.7882489209996493,None,246.62875183800043,246.64678512500086,246.64678512500086,246.64678512500086,247.14264865400037,,,,,,,,,,,,,7,7,7,7,2024-06-04_21h47.25.212,N-BACK_primary,2024.1.4,None,2024-06-04 21h47.40.977487 +0800,
,,,,,,,,,,,,,,,,,,,,27,0,27,0,,,,,,,,,,,,,,,,,,,,,,,,,247.16012572600084,,,,,,,,,,,,,,,,,247.1430598750003,j,247.16012572600084,247.87865977300044,j,1,0.7282537000000957,None,247.8795855490007,247.89750654600084,247.89750654600084,247.89750654600084,248.39238835600008,,,,,,,,,,,,,7,7,7,7,2024-06-04_21h47.25.212,N-BACK_primary,2024.1.4,None,2024-06-04 21h47.40.977487 +0800,
,,,,,,,,,,,,,,,,,,,,28,0,28,0,,,,,,,,,,,,,,,,,,,,,,,,,248.41186319900044,,,,,,,,,,,,,,,,,248.39285108700005,j,248.41186319900044,249.21047636599997,j,1,0.8008402080004089,None,249.2111102150002,249.22747236900068,249.22747236900068,249.22747236900068,249.72534506300053,,,,,,,,,,,,,7,7,7,7,2024-06-04_21h47.25.212,N-BACK_primary,2024.1.4,None,2024-06-04 21h47.40.977487 +0800,
,,,,,,,,,,,,,,,,,,,,29,0,29,0,,,,,,,,,,,,,,,,,,,,,,,,,249.74513562200082,,,,,,,,,,,,,,,,,249.72575864100054,f,249.74513562200082,250.4444934230005,j,0,0.7040116369998941,None,250.44516046600074,250.462766052,250.462766052,250.462766052,250.95948677100023,,,,,,,,,,,,,7,7,7,7,2024-06-04_21h47.25.212,N-BACK_primary,2024.1.4,None,2024-06-04 21h47.40.977487 +0800,
,,,,,,,,,,,,,,,,,,,,,,,,,,,,,,,,,,,,,,,,,,,,,,,,,,,,,,,,250.95955212300032,"{'i=': 6, 'n=': 2, 'len=': 18, 'fix=': 1}",250.97569864600064,,250.97569864600064,251.91103557800034,space,0.9270444790008696,None,,,,,,,,,,,,,,,,,250.97569864600064,250.97569864600064,,,,,,,,7,7,7,7,2024-06-04_21h47.25.212,N-BACK_primary,2024.1.4,None,2024-06-04 21h47.40.977487 +0800,
,,,,,,,,,,,,,,,,,,,,,,,,0,0,0,0,,,,,,,,,,,,,,,,,,,,,251.93260342600024,,,,,,,,,,,,,,,,,251.91210820300057,j,251.93260342600024,252.59366713600048,j,1,0.6671902050002245,None,252.59458413200082,252.61064171700036,252.61064171700036,252.61064171700036,253.1094394190004,,,,,,,,,,,,,7,7,7,7,2024-06-04_21h47.25.212,N-BACK_primary,2024.1.4,None,2024-06-04 21h47.40.977487 +0800,
,,,,,,,,,,,,,,,,,,,,,,,,1,0,1,0,,,,,,,,,,,,,,,,,,,,,253.12780369400025,,,,,,,,,,,,,,,,,253.10986056300044,j,253.12780369400025,253.42998989700027,j,1,0.30088597900066816,None,253.43062455400013,253.44619944200076,253.44619944200076,253.44619944200076,253.94229105500017,,,,,,,,,,,,,7,7,7,7,2024-06-04_21h47.25.212,N-BACK_primary,2024.1.4,None,2024-06-04 21h47.40.977487 +0800,
,,,,,,,,,,,,,,,,,,,,,,,,2,0,2,0,,,,,,,,,,,,,,,,,,,,,253.96172953100086,,,,,,,,,,,,,,,,,253.9427259440008,f,253.96172953100086,254.11240891000034,j,0,0.1612205740002537,None,254.11302928000077,254.1310154010007,254.1310154010007,254.1310154010007,254.62545483400027,,,,,,,,,,,,,7,7,7,7,2024-06-04_21h47.25.212,N-BACK_primary,2024.1.4,None,2024-06-04 21h47.40.977487 +0800,
,,,,,,,,,,,,,,,,,,,,,,,,3,0,3,0,,,,,,,,,,,,,,,,,,,,,254.65773688800073,,,,,,,,,,,,,,,,,254.62586530800036,j,254.65773688800073,254.85131130600075,j,1,0.20088289699924644,None,254.8519566670002,254.86685081400083,254.86685081400083,254.86685081400083,255.35916368500057,,,,,,,,,,,,,7,7,7,7,2024-06-04_21h47.25.212,N-BACK_primary,2024.1.4,None,2024-06-04 21h47.40.977487 +0800,
,,,,,,,,,,,,,,,,,,,,,,,,4,0,4,0,,,,,,,,,,,,,,,,,,,,,255.378844158,,,,,,,,,,,,,,,,,255.35957968800085,j,255.378844158,255.49635963000037,j,1,0.12930842700006906,None,255.49698005100072,255.51077203900059,255.51077203900059,255.51077203900059,256.0091411410003,,,,,,,,,,,,,7,7,7,7,2024-06-04_21h47.25.212,N-BACK_primary,2024.1.4,None,2024-06-04 21h47.40.977487 +0800,
,,,,,,,,,,,,,,,,,,,,,,,,5,0,5,0,,,,,,,,,,,,,,,,,,,,,256.02702277700064,,,,,,,,,,,,,,,,,256.00956226500057,f,256.02702277700064,256.19905309300066,j,0,0.16440967499966064,None,256.1996844820005,256.2144524660007,256.2144524660007,256.2144524660007,256.70906940200075,,,,,,,,,,,,,7,7,7,7,2024-06-04_21h47.25.212,N-BACK_primary,2024.1.4,None,2024-06-04 21h47.40.977487 +0800,
,,,,,,,,,,,,,,,,,,,,,,,,6,0,6,0,,,,,,,,,,,,,,,,,,,,,256.72741951400076,,,,,,,,,,,,,,,,,256.7094894870006,j,256.72741951400076,257.6603102040008,j,1,0.9288550310002393,None,257.6609607400005,257.67572205000033,257.67572205000033,257.67572205000033,258.1600071940002,258.17770245500014,258.17770245500014,258.17770245500014,,,,,,,,,,7,7,7,7,2024-06-04_21h47.25.212,N-BACK_primary,2024.1.4,None,2024-06-04 21h47.40.977487 +0800,
,,,,,,,,,,,,,,,,,,,,,,,,7,0,7,0,,,,,,,,,,,,,,,,,,,,,258.17770245500014,,,,,,,,,,,,,,,,,258.1604233240005,j,258.17770245500014,258.495633517,j,1,0.3280397759999687,None,258.4962508890003,258.51030991800053,258.51030991800053,258.51030991800053,259.0090514370004,,,,,,,,,,,,,7,7,7,7,2024-06-04_21h47.25.212,N-BACK_primary,2024.1.4,None,2024-06-04 21h47.40.977487 +0800,
,,,,,,,,,,,,,,,,,,,,,,,,8,0,8,0,,,,,,,,,,,,,,,,,,,,,259.027846553,,,,,,,,,,,,,,,,,259.0094894420008,f,259.027846553,259.16298169400034,j,0,0.13585068300017156,None,259.1635926710005,259.1809031110006,259.1809031110006,259.1809031110006,259.67531768500066,,,,,,,,,,,,,7,7,7,7,2024-06-04_21h47.25.212,N-BACK_primary,2024.1.4,None,2024-06-04 21h47.40.977487 +0800,
,,,,,,,,,,,,,,,,,,,,,,,,9,0,9,0,,,,,,,,,,,,,,,,,,,,,259.6937866980006,,,,,,,,,,,,,,,,,259.6757415110005,j,259.6937866980006,259.8294710530008,j,1,0.13875085600011516,None,259.8328093330001,259.8497075810001,259.8497075810001,259.8497075810001,260.34222944000066,,,,,,,,,,,,,7,7,7,7,2024-06-04_21h47.25.212,N-BACK_primary,2024.1.4,None,2024-06-04 21h47.40.977487 +0800,
,,,,,,,,,,,,,,,,,,,,,,,,10,0,10,0,,,,,,,,,,,,,,,,,,,,,260.36121538800035,,,,,,,,,,,,,,,,,260.3426491120008,j,260.36121538800035,260.49632159000066,j,1,0.145244706000085,None,260.4969415260002,260.5111626830003,260.5111626830003,260.5111626830003,260.9945086050002,261.01308402500035,261.01308402500035,261.01308402500035,,,,,,,,,,7,7,7,7,2024-06-04_21h47.25.212,N-BACK_primary,2024.1.4,None,2024-06-04 21h47.40.977487 +0800,
,,,,,,,,,,,,,,,,,,,,,,,,11,0,11,0,,,,,,,,,,,,,,,,,,,,,261.01308402500035,,,,,,,,,,,,,,,,,260.9950204300003,f,261.01308402500035,261.1456527140008,j,0,0.1352130949999264,None,261.1462560280006,261.16324757800066,261.16324757800066,261.16324757800066,261.65925120000065,,,,,,,,,,,,,7,7,7,7,2024-06-04_21h47.25.212,N-BACK_primary,2024.1.4,None,2024-06-04 21h47.40.977487 +0800,
,,,,,,,,,,,,,,,,,,,,,,,,12,0,12,0,,,,,,,,,,,,,,,,,,,,,261.67795571700026,,,,,,,,,,,,,,,,,261.65970229900086,f,261.67795571700026,261.7658066160002,j,0,0.09237626799949794,None,261.7693556610002,261.7853574210003,261.7853574210003,261.7853574210003,262.2756024670007,,,,,,,,,,,,,7,7,7,7,2024-06-04_21h47.25.212,N-BACK_primary,2024.1.4,None,2024-06-04 21h47.40.977487 +0800,
,,,,,,,,,,,,,,,,,,,,,,,,13,0,13,0,,,,,,,,,,,,,,,,,,,,,262.2938882490007,,,,,,,,,,,,,,,,,262.2760340620007,j,262.2938882490007,262.31404814800044,j,1,0.02599138799996581,None,262.3175388210002,262.33453386600013,262.33453386600013,262.33453386600013,262.82505657800084,,,,,,,,,,,,,7,7,7,7,2024-06-04_21h47.25.212,N-BACK_primary,2024.1.4,None,2024-06-04 21h47.40.977487 +0800,
,,,,,,,,,,,,,,,,,,,,,,,,14,0,14,0,,,,,,,,,,,,,,,,,,,,,262.84809951600073,,,,,,,,,,,,,,,,,262.8254954610002,f,262.84809951600073,262.8326287130003,j,0,0.5205914739999571,None,262.83343212100044,262.84809951600073,262.84809951600073,262.84809951600073,263.34189829800016,,,,,,,,,,,,,7,7,7,7,2024-06-04_21h47.25.212,N-BACK_primary,2024.1.4,None,2024-06-04 21h47.40.977487 +0800,
,,,,,,,,,,,,,,,,,,,,,,,,15,0,15,0,,,,,,,,,,,,,,,,,,,,,263.36187678700026,,,,,,,,,,,,,,,,,263.3423261380003,j,263.36187678700026,263.66448442,j,1,0.2984371069996996,None,263.66510773900063,263.6809660120007,263.6809660120007,263.6809660120007,264.17572566800027,,,,,,,,,,,,,7,7,7,7,2024-06-04_21h47.25.212,N-BACK_primary,2024.1.4,None,2024-06-04 21h47.40.977487 +0800,
,,,,,,,,,,,,,,,,,,,,,,,,16,0,16,0,,,,,,,,,,,,,,,,,,,,,264.19378108300043,,,,,,,,,,,,,,,,,264.1761904640007,j,264.19378108300043,264.4291087390002,j,1,0.2387687560003542,None,264.42972502500015,264.4439389090003,264.4439389090003,264.4439389090003,264.94216070700077,,,,,,,,,,,,,7,7,7,7,2024-06-04_21h47.25.212,N-BACK_primary,2024.1.4,None,2024-06-04 21h47.40.977487 +0800,
,,,,,,,,,,,,,,,,,,,,,,,,17,0,17,0,,,,,,,,,,,,,,,,,,,,,264.96165179000036,,,,,,,,,,,,,,,,,264.94257972800006,f,264.96165179000036,265.19584052700066,j,0,0.2326672139997754,None,265.19653464300063,265.21331316600026,265.21331316600026,265.21331316600026,265.70975013300085,,,,,,,,,,,,,7,7,7,7,2024-06-04_21h47.25.212,N-BACK_primary,2024.1.4,None,2024-06-04 21h47.40.977487 +0800,
,,,,,,,,,,,,,,,,,,,,,,,,18,0,18,0,,,,,,,,,,,,,,,,,,,,,265.7284250270004,,,,,,,,,,,,,,,,,265.71028501600085,j,265.7284250270004,265.8160664290008,j,1,0.07874172900028498,None,265.8194689390002,265.83478908800043,265.83478908800043,265.83478908800043,266.3260180080006,,,,,,,,,,,,,7,7,7,7,2024-06-04_21h47.25.212,N-BACK_primary,2024.1.4,None,2024-06-04 21h47.40.977487 +0800,
,,,,,,,,,,,,,,,,,,,,,,,,19,0,19,0,,,,,,,,,,,,,,,,,,,,,266.34937097500006,,,,,,,,,,,,,,,,,266.32653016900076,f,266.34937097500006,266.33360659900063,j,0,0.49392883899963635,None,266.33463281200056,266.34937097500006,266.34937097500006,266.34937097500006,266.8426056540002,,,,,,,,,,,,,7,7,7,7,2024-06-04_21h47.25.212,N-BACK_primary,2024.1.4,None,2024-06-04 21h47.40.977487 +0800,
,,,,,,,,,,,,,,,,,,,,,,,,20,0,20,0,,,,,,,,,,,,,,,,,,,,,266.86256536400015,,,,,,,,,,,,,,,,,266.843033225,f,266.86256536400015,266.8497659630002,j,0,0.3558210480005073,None,266.8506636730008,266.86256536400015,266.86256536400015,266.86256536400015,267.35930754200035,,,,,,,,,,,,,7,7,7,7,2024-06-04_21h47.25.212,N-BACK_primary,2024.1.4,None,2024-06-04 21h47.40.977487 +0800,
,,,,,,,,,,,,,,,,,,,,,,,,21,0,21,0,,,,,,,,,,,,,,,,,,,,,267.37822980300007,,,,,,,,,,,,,,,,,267.3597436350001,j,267.37822980300007,267.8639090300003,j,1,0.479674889999842,None,267.8646188420007,267.87920333000056,267.87920333000056,267.87920333000056,268.374946166,,,,,,,,,,,,,7,7,7,7,2024-06-04_21h47.25.212,N-BACK_primary,2024.1.4,None,2024-06-04 21h47.40.977487 +0800,
,,,,,,,,,,,,,,,,,,,,,,,,22,0,22,0,,,,,,,,,,,,,,,,,,,,,268.3924399670004,,,,,,,,,,,,,,,,,268.3753669530006,f,268.3924399670004,269.1779633650003,j,0,0.7900386960000105,None,269.1785977290001,269.19502381800066,269.19502381800066,269.19502381800066,269.69205354800033,,,,,,,,,,,,,7,7,7,7,2024-06-04_21h47.25.212,N-BACK_primary,2024.1.4,None,2024-06-04 21h47.40.977487 +0800,
,,,,,,,,,,,,,,,,,,,,,,,,23,0,23,0,,,,,,,,,,,,,,,,,,,,,269.7102549680003,,,,,,,,,,,,,,,,,269.6924961090008,f,269.7102549680003,270.5435233930002,j,0,0.8289084660000299,None,270.5441448210004,270.558272624,270.558272624,270.558272624,271.04279456100085,271.06059224,271.06059224,271.06059224,,,,,,,,,,7,7,7,7,2024-06-04_21h47.25.212,N-BACK_primary,2024.1.4,None,2024-06-04 21h47.40.977487 +0800,
,,,,,,,,,,,,,,,,,,,,,,,,24,0,24,0,,,,,,,,,,,,,,,,,,,,,271.06059224,,,,,,,,,,,,,,,,,271.04321798600085,j,271.06059224,271.54608637399997,j,1,0.49487027499981195,None,271.54672039600064,271.56374151600085,271.56374151600085,271.56374151600085,272.0591652610001,,,,,,,,,,,,,7,7,7,7,2024-06-04_21h47.25.212,N-BACK_primary,2024.1.4,None,2024-06-04 21h47.40.977487 +0800,
,,,,,,,,,,,,,,,,,,,,,,,,25,0,25,0,,,,,,,,,,,,,,,,,,,,,272.0772191820006,,,,,,,,,,,,,,,,,272.0595910680004,j,272.0772191820006,272.38089457300066,j,1,0.3136535650000951,None,272.3815648180007,272.3965378920002,272.3965378920002,272.3965378920002,272.89165866500025,,,,,,,,,,,,,7,7,7,7,2024-06-04_21h47.25.212,N-BACK_primary,2024.1.4,None,2024-06-04 21h47.40.977487 +0800,
,,,,,,,,,,,,,,,,,,,,,,,,26,0,26,0,,,,,,,,,,,,,,,,,,,,,272.9092613010007,,,,,,,,,,,,,,,,,272.89213776700035,f,272.9092613010007,273.1470059810008,j,0,0.2321041819996026,None,273.1476196170006,273.1619217380003,273.1619217380003,273.1619217380003,273.65936941200016,,,,,,,,,,,,,7,7,7,7,2024-06-04_21h47.25.212,N-BACK_primary,2024.1.4,None,2024-06-04 21h47.40.977487 +0800,
,,,,,,,,,,,,,,,,,,,,,,,,27,0,27,0,,,,,,,,,,,,,,,,,,,,,273.6783144840001,,,,,,,,,,,,,,,,,273.6597807620001,j,273.6783144840001,273.91395972100054,j,1,0.2312641070002428,None,273.9146187340002,273.93047327600016,273.93047327600016,273.93047327600016,274.4255017940004,,,,,,,,,,,,,7,7,7,7,2024-06-04_21h47.25.212,N-BACK_primary,2024.1.4,None,2024-06-04 21h47.40.977487 +0800,
,,,,,,,,,,,,,,,,,,,,,,,,28,0,28,0,,,,,,,,,,,,,,,,,,,,,274.44552463000036,,,,,,,,,,,,,,,,,274.42604201000086,j,274.44552463000036,274.6794387250002,j,1,0.24048669800049538,None,274.68006529600007,274.69392964800045,274.69392964800045,274.69392964800045,275.19132339800035,,,,,,,,,,,,,7,7,7,7,2024-06-04_21h47.25.212,N-BACK_primary,2024.1.4,None,2024-06-04 21h47.40.977487 +0800,
,,,,,,,,,,,,,,,,,,,,,,,,29,0,29,0,,,,,,,,,,,,,,,,,,,,,275.2101435120003,,,,,,,,,,,,,,,,,275.19203303500035,f,275.2101435120003,275.46483887200066,j,0,0.2584063630001765,None,275.46555036000063,275.4866920020004,275.4866920020004,275.4866920020004,275.97583375500017,,,,,,,,,,,,,7,7,7,7,2024-06-04_21h47.25.212,N-BACK_primary,2024.1.4,None,2024-06-04 21h47.40.977487 +0800,
,,,,,,,,,,,,,,,,,,,,,,,,,,,,,,,,,,,,,,,,,,,,,,,,,,,,,,,,275.97590080900045,"{'i=': 5, 'n=': 2, 'len=': 18, 'fix=': 9}",275.99150290000034,,275.99150290000034,278.04419790200063,space,2.0492319510003654,None,,,,,,,,,,,,,,,,,275.99150290000034,275.99150290000034,,,,,,,,7,7,7,7,2024-06-04_21h47.25.212,N-BACK_primary,2024.1.4,None,2024-06-04 21h47.40.977487 +0800,
,,,,,,,,,,,,,,,,,,,,,,,,,,,,0,0,0,0,,,,,,,,,,,,,,,,,278.0674353500008,,,,,,,,,,,,,,,,,278.0453419280002,j,278.0674353500008,278.496228387,j,1,0.4397540720001416,None,278.49707338400003,278.51542219400017,278.51542219400017,278.51542219400017,279.00851345200044,,,,,,,,,,,,,7,7,7,7,2024-06-04_21h47.25.212,N-BACK_primary,2024.1.4,None,2024-06-04 21h47.40.977487 +0800,
,,,,,,,,,,,,,,,,,,,,,,,,,,,,1,0,1,0,,,,,,,,,,,,,,,,,279.02676329800033,,,,,,,,,,,,,,,,,279.0089341470002,j,279.02676329800033,279.2297069790002,j,1,0.21058640100000048,None,279.230324096,279.24667159800083,279.24667159800083,279.24667159800083,279.7420265820001,,,,,,,,,,,,,7,7,7,7,2024-06-04_21h47.25.212,N-BACK_primary,2024.1.4,None,2024-06-04 21h47.40.977487 +0800,
,,,,,,,,,,,,,,,,,,,,,,,,,,,,2,0,2,0,,,,,,,,,,,,,,,,,279.76144352900064,,,,,,,,,,,,,,,,,279.74245972300014,f,279.76144352900064,280.02945710600034,j,0,0.2706043549997048,None,280.03007214600075,280.0461887650008,280.0461887650008,280.0461887650008,280.5419736980002,,,,,,,,,,,,,7,7,7,7,2024-06-04_21h47.25.212,N-BACK_primary,2024.1.4,None,2024-06-04 21h47.40.977487 +0800,
,,,,,,,,,,,,,,,,,,,,,,,,,,,,3,0,3,0,,,,,,,,,,,,,,,,,280.56137030900027,,,,,,,,,,,,,,,,,280.5424126990001,j,280.56137030900027,280.7292141000007,j,1,0.17849045200000546,None,280.7325959910004,280.7512160460001,280.7512160460001,280.7512160460001,281.2419735090007,,,,,,,,,,,,,7,7,7,7,2024-06-04_21h47.25.212,N-BACK_primary,2024.1.4,None,2024-06-04 21h47.40.977487 +0800,
,,,,,,,,,,,,,,,,,,,,,,,,,,,,4,0,4,0,,,,,,,,,,,,,,,,,281.26132911700006,,,,,,,,,,,,,,,,,281.2424034100004,j,281.26132911700006,281.46227021400045,j,1,0.21140596099940012,None,281.46288554000057,281.47825256800024,281.47825256800024,281.47825256800024,281.9753554790004,,,,,,,,,,,,,7,7,7,7,2024-06-04_21h47.25.212,N-BACK_primary,2024.1.4,None,2024-06-04 21h47.40.977487 +0800,
,,,,,,,,,,,,,,,,,,,,,,,,,,,,5,0,5,0,,,,,,,,,,,,,,,,,281.99551722900014,,,,,,,,,,,,,,,,,281.97577622800054,f,281.99551722900014,282.2456841680005,j,0,0.2530495870005325,None,282.2464323080003,282.2640085820003,282.2640085820003,282.2640085820003,282.75885673800076,,,,,,,,,,,,,7,7,7,7,2024-06-04_21h47.25.212,N-BACK_primary,2024.1.4,None,2024-06-04 21h47.40.977487 +0800,
,,,,,,,,,,,,,,,,,,,,,,,,,,,,6,0,6,0,,,,,,,,,,,,,,,,,282.77711114700014,,,,,,,,,,,,,,,,,282.7593004170003,j,282.77711114700014,282.98295577800036,j,1,0.19945694800026104,None,282.98357730600037,282.99860385400007,282.99860385400007,282.99860385400007,283.49196952000057,,,,,,,,,,,,,7,7,7,7,2024-06-04_21h47.25.212,N-BACK_primary,2024.1.4,None,2024-06-04 21h47.40.977487 +0800,
,,,,,,,,,,,,,,,,,,,,,,,,,,,,7,0,7,0,,,,,,,,,,,,,,,,,283.5095468620002,,,,,,,,,,,,,,,,,283.4924024410002,j,283.5095468620002,283.69581916900006,j,1,0.19459701899995707,None,283.69643834600083,283.712244587,283.712244587,283.712244587,284.20847250800034,,,,,,,,,,,,,7,7,7,7,2024-06-04_21h47.25.212,N-BACK_primary,2024.1.4,None,2024-06-04 21h47.40.977487 +0800,
,,,,,,,,,,,,,,,,,,,,,,,,,,,,8,0,8,0,,,,,,,,,,,,,,,,,284.2269613160006,,,,,,,,,,,,,,,,,284.20887710400075,f,284.2269613160006,284.3958215450002,j,0,0.1699560269998983,None,284.396453929,284.41378988500037,284.41378988500037,284.41378988500037,284.90846710200003,,,,,,,,,,,,,7,7,7,7,2024-06-04_21h47.25.212,N-BACK_primary,2024.1.4,None,2024-06-04 21h47.40.977487 +0800,
,,,,,,,,,,,,,,,,,,,,,,,,,,,,9,0,9,0,,,,,,,,,,,,,,,,,284.9266761500003,,,,,,,,,,,,,,,,,284.90888857200025,j,284.9266761500003,285.16272748900064,j,1,0.23465340499933518,None,285.1633411840003,285.1812685190007,285.1812685190007,285.1812685190007,285.66360915900077,,,,,,,,,,,,,7,7,7,7,2024-06-04_21h47.25.212,N-BACK_primary,2024.1.4,None,2024-06-04 21h47.40.977487 +0800,
,,,,,,,,,,,,,,,,,,,,,,,,,,,,10,0,10,0,,,,,,,,,,,,,,,,,285.68704583199997,,,,,,,,,,,,,,,,,285.66410597200047,j,285.68704583199997,285.84285662800085,j,1,0.15435579999939364,None,285.8434707910001,285.85595846900014,285.85595846900014,285.85595846900014,286.3425404970003,286.3618520030004,286.3618520030004,286.3618520030004,,,,,,,,,,7,7,7,7,2024-06-04_21h47.25.212,N-BACK_primary,2024.1.4,None,2024-06-04 21h47.40.977487 +0800,
,,,,,,,,,,,,,,,,,,,,,,,,,,,,11,0,11,0,,,,,,,,,,,,,,,,,286.3618520030004,,,,,,,,,,,,,,,,,286.3429658570003,f,286.3618520030004,286.53214436000053,j,0,0.16664509099973657,None,286.5329413240006,286.55113971100036,286.55113971100036,286.55113971100036,287.0421503360003,,,,,,,,,,,,,7,7,7,7,2024-06-04_21h47.25.212,N-BACK_primary,2024.1.4,None,2024-06-04 21h47.40.977487 +0800,
,,,,,,,,,,,,,,,,,,,,,,,,,,,,12,0,12,0,,,,,,,,,,,,,,,,,287.06190173699997,,,,,,,,,,,,,,,,,287.0425801850006,j,287.06190173699997,287.22907884400047,j,1,0.17339134400026524,None,287.232626299,287.24992387600014,287.24992387600014,287.24992387600014,287.74206910700013,,,,,,,,,,,,,7,7,7,7,2024-06-04_21h47.25.212,N-BACK_primary,2024.1.4,None,2024-06-04 21h47.40.977487 +0800,
